submission_id,question,response1,sentence_left,startDate,context_picture,experiment_id,picture2,correct1,question1,problems,enjoyment,item,botresponse,correct2,pic_spec,understand,text,condition,target,age,response,comments,ref_spec,picture1,response3,education,target_size,languages,sex,RT,correct3,context,trial_number,startTime,attempts,question3,fairprice,question2,response2,adj_cond,trial_name,utterance
866,NA,swordfish,NA,Fri Nov 22 2019 11:51:23 GMT-0800 (Pacific Standard Time),NA,24,warmup/goldfish_warmup.png,swordfish,This is a,NA,1,fish,susan,goldfish,NA,NA,Please label the pictures below.,NA,NA,24,NA,NA,NA,warmup/swordfish.jpg,fish,graduated_high_school,NA,english,male,NA,fish,NA,1,1574452283747,1,This is a,1,These are both,goldfish,NA,warmup1,NA
866,NA,tree,NA,Fri Nov 22 2019 11:51:23 GMT-0800 (Pacific Standard Time),NA,24,warmup/bonsai.jpg,redwood or sequoia (choose one),This is a,NA,1,trees,susan,bonsai,NA,NA,Please label the pictures below.,NA,NA,24,NA,NA,NA,warmup/sequoia.png,tree,graduated_high_school,NA,english,male,NA,trees,NA,2,1574452283747,1,This is a,1,These are both,tree,NA,warmup1,NA
866,NA,sequoia,NA,Fri Nov 22 2019 11:51:23 GMT-0800 (Pacific Standard Time),NA,24,warmup/bonsai.jpg,redwood or sequoia (choose one),This is a,NA,1,trees,susan,bonsai,NA,NA,Please label the pictures below.,NA,NA,24,NA,NA,NA,warmup/sequoia.png,trees,graduated_high_school,NA,english,male,NA,trees,NA,2,1574452283747,2,This is a,1,These are both,bonsai,NA,warmup1,NA
866,NA,hummingbird,NA,Fri Nov 22 2019 11:51:23 GMT-0800 (Pacific Standard Time),NA,24,warmup/eagle.jpg,hummingbird,This is a,NA,1,birds,susan,eagle,NA,NA,Please label the pictures below.,NA,NA,24,NA,NA,NA,warmup/colibri.jpg,birds,graduated_high_school,NA,english,male,NA,birds,NA,3,1574452283747,1,This is an,1,These are both,eagle,NA,warmup1,NA
866,What do you think your friend meant?,NA,It is big  relative to other,Fri Nov 22 2019 11:51:23 GMT-0800 (Pacific Standard Time),ref-utility/swordfish-5-6.png,24,NA,NA,NA,NA,1,fish,susan,NA,1,NA,"Your friend runs far ahead of you, and you see him in the distance:",prenominal,warmup/swordfish.png,24,fish,NA,1,NA,NA,graduated_high_school,big,english,male,NA,NA,You and your friend see the following:,1,1574452283747,NA,NA,1,NA,NA,congr,custom_main_text1,Your friend says: <br/><b>That's a big swordfish.</b>
866,What do you think your friend meant?,NA,It is big  relative to other,Fri Nov 22 2019 11:51:23 GMT-0800 (Pacific Standard Time),ref-utility/redwoods-5-6.png,24,NA,NA,NA,NA,1,trees,susan,NA,1,NA,"Your friend runs far ahead of you, and you see him in the distance:",prenominal,warmup/redwood.png,24,trees,NA,1,NA,NA,graduated_high_school,big,english,male,NA,NA,You and your friend see the following:,2,1574452283747,NA,NA,1,NA,NA,congr,custom_main_text1,Your friend says: <br/><b>That's a big redwood.</b>
866,What do you think your friend meant?,NA,It is small  relative to other,Fri Nov 22 2019 11:51:23 GMT-0800 (Pacific Standard Time),ref-utility/hummingbirds-5-6.png,24,NA,NA,NA,NA,1,birds,susan,NA,1,NA,"Your friend runs far ahead of you, and you see him in the distance:",prenominal,warmup/hummingbird.png,24,hummingbirds,NA,1,NA,NA,graduated_high_school,small,english,male,NA,NA,You and your friend see the following:,3,1574452283747,NA,NA,1,NA,NA,congr,custom_main_text1,Your friend says: <br/><b>That's a small hummingbird.</b>
866,NA,pug,NA,Fri Nov 22 2019 11:51:23 GMT-0800 (Pacific Standard Time),NA,24,warmup/great-dane.jpg,pug,This is a,NA,1,dogs,susan,great dane,NA,NA,Please label the pictures below.,NA,NA,24,NA,NA,NA,warmup/pug.jpg,dog,graduated_high_school,NA,english,male,NA,dogs,NA,1,1574452283747,1,This is a,1,These are both,dog,NA,warmup2,NA
866,NA,pug,NA,Fri Nov 22 2019 11:51:23 GMT-0800 (Pacific Standard Time),NA,24,warmup/great-dane.jpg,pug,This is a,NA,1,dogs,susan,great dane,NA,NA,Please label the pictures below.,NA,NA,24,NA,NA,NA,warmup/pug.jpg,dog,graduated_high_school,NA,english,male,NA,dogs,NA,1,1574452283747,2,This is a,1,These are both,great dane,NA,warmup2,NA
866,NA,pug,NA,Fri Nov 22 2019 11:51:23 GMT-0800 (Pacific Standard Time),NA,24,warmup/great-dane.jpg,pug,This is a,NA,1,dogs,susan,great dane,NA,NA,Please label the pictures below.,NA,NA,24,NA,NA,NA,warmup/pug.jpg,dogs,graduated_high_school,NA,english,male,NA,dogs,NA,1,1574452283747,3,This is a,1,These are both,great dane,NA,warmup2,NA
866,NA,aaaaa,NA,Fri Nov 22 2019 11:51:23 GMT-0800 (Pacific Standard Time),NA,24,warmup/doberman_warmup.png,chihuahua,This is a,NA,1,dogs,susan,doberman,NA,NA,Please label the pictures below.,NA,NA,24,NA,NA,NA,warmup/chihuahua.jpg,dogs,graduated_high_school,NA,english,male,NA,dogs,NA,2,1574452283747,1,This is a,1,These are both,aaaaa,NA,warmup2,NA
866,NA,chihuahua,NA,Fri Nov 22 2019 11:51:23 GMT-0800 (Pacific Standard Time),NA,24,warmup/doberman_warmup.png,chihuahua,This is a,NA,1,dogs,susan,doberman,NA,NA,Please label the pictures below.,NA,NA,24,NA,NA,NA,warmup/chihuahua.jpg,dogs,graduated_high_school,NA,english,male,NA,dogs,NA,2,1574452283747,2,This is a,1,These are both,doberman,NA,warmup2,NA
866,NA,dandelion,NA,Fri Nov 22 2019 11:51:23 GMT-0800 (Pacific Standard Time),NA,24,warmup/sunflower_warmup.png,dandelion,This is a,NA,1,flowers,susan,sunflower,NA,NA,Please label the pictures below.,NA,NA,24,NA,NA,NA,warmup/dandelion.jpg,flowers,graduated_high_school,NA,english,male,NA,flowers,NA,3,1574452283747,1,This is a,1,These are both,sunflower,NA,warmup2,NA
866,What do you think your friend meant?,NA,It is small  relative to other,Fri Nov 22 2019 11:51:23 GMT-0800 (Pacific Standard Time),ref-utility/pugs-5-6.png,24,NA,NA,NA,NA,1,dogs2,susan,NA,1,NA,"Your friend runs far ahead of you, and you see him in the distance:",prenominal,warmup/pug.png,24,pugs,NA,1,NA,NA,graduated_high_school,small,english,male,NA,NA,You and your friend see the following:,1,1574452283747,NA,NA,1,NA,NA,congr,custom_main_text2,Your friend says: <br/><b>That's a small pug.</b>
866,What do you think your friend meant?,NA,It is big  relative to other,Fri Nov 22 2019 11:51:23 GMT-0800 (Pacific Standard Time),ref-utility/sunflowers-5-6.png,24,NA,NA,NA,NA,1,flowers,susan,NA,1,NA,"Your friend runs far ahead of you, and you see him in the distance:",prenominal,warmup/sunflower.png,24,sunflowers,NA,1,NA,NA,graduated_high_school,big,english,male,NA,NA,You and your friend see the following:,2,1574452283747,NA,NA,1,NA,NA,congr,custom_main_text2,Your friend says: <br/><b>That's a big sunflower.</b>
866,What do you think your friend meant?,NA,It is small  relative to other,Fri Nov 22 2019 11:51:23 GMT-0800 (Pacific Standard Time),ref-utility/chihuahuas-5-6.png,24,NA,NA,NA,NA,1,dogs1,susan,NA,1,NA,"Your friend runs far ahead of you, and you see him in the distance:",prenominal,warmup/chihuahua.png,24,chihuahuas,NA,1,NA,NA,graduated_high_school,small,english,male,NA,NA,You and your friend see the following:,3,1574452283747,NA,NA,1,NA,NA,congr,custom_main_text2,Your friend says: <br/><b>That's a small chihuahua.</b>
863,NA,hummingbird,NA,Fri Nov 22 2019 11:20:40 GMT-0800 (Pacific Standard Time),NA,24,warmup/eagle.jpg,hummingbird,This is a,none,1,birds,margaret,eagle,NA,yes,Please label the pictures below.,NA,NA,32,NA,none,NA,warmup/colibri.jpg,birds,some_college,NA,English,male,NA,birds,NA,1,1574450440854,1,This is an,1.5,These are both,eagle,NA,warmup1,NA
863,NA,tulip,NA,Fri Nov 22 2019 11:20:40 GMT-0800 (Pacific Standard Time),NA,24,warmup/sunflower_warmup.png,dandelion,This is a,none,1,flowers,margaret,sunflower,NA,yes,Please label the pictures below.,NA,NA,32,NA,none,NA,warmup/dandelion.jpg,flowers,some_college,NA,English,male,NA,flowers,NA,2,1574450440854,1,This is a,1.5,These are both,daisy,NA,warmup1,NA
863,NA,dandelion,NA,Fri Nov 22 2019 11:20:40 GMT-0800 (Pacific Standard Time),NA,24,warmup/sunflower_warmup.png,dandelion,This is a,none,1,flowers,margaret,sunflower,NA,yes,Please label the pictures below.,NA,NA,32,NA,none,NA,warmup/dandelion.jpg,flowers,some_college,NA,English,male,NA,flowers,NA,2,1574450440854,2,This is a,1.5,These are both,sunflower,NA,warmup1,NA
863,NA,pug,NA,Fri Nov 22 2019 11:20:40 GMT-0800 (Pacific Standard Time),NA,24,warmup/great-dane.jpg,pug,This is a,none,1,dogs,margaret,great dane,NA,yes,Please label the pictures below.,NA,NA,32,NA,none,NA,warmup/pug.jpg,dogs,some_college,NA,English,male,NA,dogs,NA,3,1574450440854,1,This is a,1.5,These are both,great dane,NA,warmup1,NA
863,What do you think your friend meant?,NA,It is big  relative to other,Fri Nov 22 2019 11:20:40 GMT-0800 (Pacific Standard Time),ref-utility/sunflowers-5-6.png,24,NA,NA,NA,none,1,flowers,margaret,NA,1,yes,"Your friend runs far ahead of you, and you see him in the distance:",prenominal,warmup/sunflower.png,32,sunflowers,none,1,NA,NA,some_college,big,English,male,NA,NA,You and your friend see the following:,1,1574450440854,NA,NA,1.5,NA,NA,congr,custom_main_text1,Your friend says: <br/><b>That's a big sunflower.</b>
863,What do you think your friend meant?,NA,It is small  relative to other,Fri Nov 22 2019 11:20:40 GMT-0800 (Pacific Standard Time),ref-utility/hummingbirds-5-6.png,24,NA,NA,NA,none,1,birds,margaret,NA,1,yes,"Your friend runs far ahead of you, and you see him in the distance:",prenominal,warmup/hummingbird.png,32,birds,none,1,NA,NA,some_college,small,English,male,NA,NA,You and your friend see the following:,2,1574450440854,NA,NA,1.5,NA,NA,congr,custom_main_text1,Your friend says: <br/><b>That's a small hummingbird.</b>
863,What do you think your friend meant?,NA,It is big  relative to other,Fri Nov 22 2019 11:20:40 GMT-0800 (Pacific Standard Time),ref-utility/great-danes-5-6.png,24,NA,NA,NA,none,1,dogs2,margaret,NA,1,yes,"Your friend runs far ahead of you, and you see him in the distance:",prenominal,warmup/great-dane.png,32,great danes,none,1,NA,NA,some_college,big,English,male,NA,NA,You and your friend see the following:,3,1574450440854,NA,NA,1.5,NA,NA,congr,custom_main_text1,Your friend says: <br/><b>That's a big great dane.</b>
863,NA,chihuahua,NA,Fri Nov 22 2019 11:20:40 GMT-0800 (Pacific Standard Time),NA,24,warmup/doberman_warmup.png,chihuahua,This is a,none,1,dogs,margaret,doberman,NA,yes,Please label the pictures below.,NA,NA,32,NA,none,NA,warmup/chihuahua.jpg,dogs,some_college,NA,English,male,NA,dogs,NA,1,1574450440854,1,This is a,1.5,These are both,doberman,NA,warmup2,NA
863,NA,swordfish,NA,Fri Nov 22 2019 11:20:40 GMT-0800 (Pacific Standard Time),NA,24,warmup/goldfish_warmup.png,swordfish,This is a,none,1,fish,margaret,goldfish,NA,yes,Please label the pictures below.,NA,NA,32,NA,none,NA,warmup/swordfish.jpg,fise,some_college,NA,English,male,NA,fish,NA,2,1574450440854,1,This is a,1.5,These are both,goldfish,NA,warmup2,NA
863,NA,swordfish,NA,Fri Nov 22 2019 11:20:40 GMT-0800 (Pacific Standard Time),NA,24,warmup/goldfish_warmup.png,swordfish,This is a,none,1,fish,margaret,goldfish,NA,yes,Please label the pictures below.,NA,NA,32,NA,none,NA,warmup/swordfish.jpg,fish,some_college,NA,English,male,NA,fish,NA,2,1574450440854,2,This is a,1.5,These are both,goldfish,NA,warmup2,NA
863,NA,redwood,NA,Fri Nov 22 2019 11:20:40 GMT-0800 (Pacific Standard Time),NA,24,warmup/bonsai.jpg,redwood or sequoia (choose one),This is a,none,1,trees,margaret,bonsai,NA,yes,Please label the pictures below.,NA,NA,32,NA,none,NA,warmup/sequoia.png,trees,some_college,NA,English,male,NA,trees,NA,3,1574450440854,1,This is a,1.5,These are both,bonsai,NA,warmup2,NA
863,What do you think your friend meant?,NA,It is small  relative to other,Fri Nov 22 2019 11:20:40 GMT-0800 (Pacific Standard Time),ref-utility/goldfish-5-6.png,24,NA,NA,NA,none,1,fish,margaret,NA,1,yes,"Your friend runs far ahead of you, and you see him in the distance:",prenominal,warmup/goldfish.png,32,goldfish,none,1,NA,NA,some_college,small,English,male,NA,NA,You and your friend see the following:,1,1574450440854,NA,NA,1.5,NA,NA,congr,custom_main_text2,Your friend says: <br/><b>That's a small goldfish.</b>
863,What do you think your friend meant?,NA,It is small  relative to other,Fri Nov 22 2019 11:20:40 GMT-0800 (Pacific Standard Time),ref-utility/bonsais-5-6.png,24,NA,NA,NA,none,1,trees,margaret,NA,1,yes,"Your friend runs far ahead of you, and you see him in the distance:",prenominal,warmup/bonsai.png,32,bonsai,none,1,NA,NA,some_college,small,English,male,NA,NA,You and your friend see the following:,2,1574450440854,NA,NA,1.5,NA,NA,congr,custom_main_text2,Your friend says: <br/><b>That's a small bonsai.</b>
863,What do you think your friend meant?,NA,It is big  relative to other,Fri Nov 22 2019 11:20:40 GMT-0800 (Pacific Standard Time),ref-utility/doberman-5-6.png,24,NA,NA,NA,none,1,dogs1,margaret,NA,1,yes,"Your friend runs far ahead of you, and you see him in the distance:",prenominal,warmup/doberman.png,32,doberman,none,1,NA,NA,some_college,big,English,male,NA,NA,You and your friend see the following:,3,1574450440854,NA,NA,1.5,NA,NA,congr,custom_main_text2,Your friend says: <br/><b>That's a big doberman.</b>
856,NA,swordfish,NA,Fri Nov 22 2019 11:08:29 GMT-0800 (Pacific Standard Time),NA,24,warmup/goldfish_warmup.png,swordfish,This is a,None,2,fish,patricia,goldfish,NA,yes,Please label the pictures below.,NA,NA,23,NA,NA,NA,warmup/swordfish.jpg,fish,some_college,NA,English,male,NA,fish,NA,1,1574449709769,1,This is a,1,These are both,goldfish,NA,warmup1,NA
856,NA,redwood tree,NA,Fri Nov 22 2019 11:08:29 GMT-0800 (Pacific Standard Time),NA,24,warmup/bonsai.jpg,redwood or sequoia (choose one),This is a,None,2,trees,patricia,bonsai,NA,yes,Please label the pictures below.,NA,NA,23,NA,NA,NA,warmup/sequoia.png,trees,some_college,NA,English,male,NA,trees,NA,2,1574449709769,1,This is a,1,These are both,bonsai tree,NA,warmup1,NA
856,NA,redwood,NA,Fri Nov 22 2019 11:08:29 GMT-0800 (Pacific Standard Time),NA,24,warmup/bonsai.jpg,redwood or sequoia (choose one),This is a,None,2,trees,patricia,bonsai,NA,yes,Please label the pictures below.,NA,NA,23,NA,NA,NA,warmup/sequoia.png,trees,some_college,NA,English,male,NA,trees,NA,2,1574449709769,2,This is a,1,These are both,bonsai,NA,warmup1,NA
856,NA,pug,NA,Fri Nov 22 2019 11:08:29 GMT-0800 (Pacific Standard Time),NA,24,warmup/great-dane.jpg,pug,This is a,None,2,dogs,patricia,great dane,NA,yes,Please label the pictures below.,NA,NA,23,NA,NA,NA,warmup/pug.jpg,dogs,some_college,NA,English,male,NA,dogs,NA,3,1574449709769,1,This is a,1,These are both,doberman,NA,warmup1,NA
856,NA,pug,NA,Fri Nov 22 2019 11:08:29 GMT-0800 (Pacific Standard Time),NA,24,warmup/great-dane.jpg,pug,This is a,None,2,dogs,patricia,great dane,NA,yes,Please label the pictures below.,NA,NA,23,NA,NA,NA,warmup/pug.jpg,dogs,some_college,NA,English,male,NA,dogs,NA,3,1574449709769,2,This is a,1,These are both,great dane,NA,warmup1,NA
856,What do you think your friend meant?,NA,It is small  relative to other,Fri Nov 22 2019 11:08:29 GMT-0800 (Pacific Standard Time),ref-utility/bonsais-5-6.png,24,NA,NA,NA,None,2,trees,patricia,NA,1,yes,"Your friend runs far ahead of you, and you see him in the distance:",prenominal,warmup/bonsai.png,23,bonsais,NA,1,NA,NA,some_college,small,English,male,NA,NA,You and your friend see the following:,1,1574449709769,NA,NA,1,NA,NA,congr,custom_main_text1,Your friend says: <br/><b>That's a small bonsai.</b>
856,What do you think your friend meant?,NA,It is small  relative to other,Fri Nov 22 2019 11:08:29 GMT-0800 (Pacific Standard Time),ref-utility/pugs-5-6.png,24,NA,NA,NA,None,2,dogs2,patricia,NA,1,yes,"Your friend runs far ahead of you, and you see him in the distance:",prenominal,warmup/pug.png,23,pugs,NA,1,NA,NA,some_college,small,English,male,NA,NA,You and your friend see the following:,2,1574449709769,NA,NA,1,NA,NA,congr,custom_main_text1,Your friend says: <br/><b>That's a small pug.</b>
856,What do you think your friend meant?,NA,It is small  relative to other,Fri Nov 22 2019 11:08:29 GMT-0800 (Pacific Standard Time),ref-utility/goldfish-5-6.png,24,NA,NA,NA,None,2,fish,patricia,NA,1,yes,"Your friend runs far ahead of you, and you see him in the distance:",prenominal,warmup/goldfish.png,23,goldfish,NA,1,NA,NA,some_college,small,English,male,NA,NA,You and your friend see the following:,3,1574449709769,NA,NA,1,NA,NA,congr,custom_main_text1,Your friend says: <br/><b>That's a small goldfish.</b>
856,NA,dandilion,NA,Fri Nov 22 2019 11:08:29 GMT-0800 (Pacific Standard Time),NA,24,warmup/sunflower_warmup.png,dandelion,This is a,None,2,flowers,patricia,sunflower,NA,yes,Please label the pictures below.,NA,NA,23,NA,NA,NA,warmup/dandelion.jpg,flowers,some_college,NA,English,male,NA,flowers,NA,1,1574449709769,1,This is a,1,These are both,sunflower,NA,warmup2,NA
856,NA,dandelion,NA,Fri Nov 22 2019 11:08:29 GMT-0800 (Pacific Standard Time),NA,24,warmup/sunflower_warmup.png,dandelion,This is a,None,2,flowers,patricia,sunflower,NA,yes,Please label the pictures below.,NA,NA,23,NA,NA,NA,warmup/dandelion.jpg,flowers,some_college,NA,English,male,NA,flowers,NA,1,1574449709769,2,This is a,1,These are both,sunflower,NA,warmup2,NA
856,NA,hummingbird,NA,Fri Nov 22 2019 11:08:29 GMT-0800 (Pacific Standard Time),NA,24,warmup/eagle.jpg,hummingbird,This is a,None,2,birds,patricia,eagle,NA,yes,Please label the pictures below.,NA,NA,23,NA,NA,NA,warmup/colibri.jpg,birds,some_college,NA,English,male,NA,birds,NA,2,1574449709769,1,This is an,1,These are both,eagle,NA,warmup2,NA
856,NA,chihuahua,NA,Fri Nov 22 2019 11:08:29 GMT-0800 (Pacific Standard Time),NA,24,warmup/doberman_warmup.png,chihuahua,This is a,None,2,dogs,patricia,doberman,NA,yes,Please label the pictures below.,NA,NA,23,NA,NA,NA,warmup/chihuahua.jpg,dogs,some_college,NA,English,male,NA,dogs,NA,3,1574449709769,1,This is a,1,These are both,doberman,NA,warmup2,NA
856,What do you think your friend meant?,NA,It is big  relative to other,Fri Nov 22 2019 11:08:29 GMT-0800 (Pacific Standard Time),ref-utility/sunflowers-5-6.png,24,NA,NA,NA,None,2,flowers,patricia,NA,1,yes,"Your friend runs far ahead of you, and you see him in the distance:",prenominal,warmup/sunflower.png,23,sunflowers,NA,1,NA,NA,some_college,big,English,male,NA,NA,You and your friend see the following:,1,1574449709769,NA,NA,1,NA,NA,congr,custom_main_text2,Your friend says: <br/><b>That's a big sunflower.</b>
856,What do you think your friend meant?,NA,It is big  relative to other,Fri Nov 22 2019 11:08:29 GMT-0800 (Pacific Standard Time),ref-utility/eagles-5-6.png,24,NA,NA,NA,None,2,birds,patricia,NA,1,yes,"Your friend runs far ahead of you, and you see him in the distance:",prenominal,warmup/eagle.png,23,eagles,NA,1,NA,NA,some_college,big,English,male,NA,NA,You and your friend see the following:,2,1574449709769,NA,NA,1,NA,NA,congr,custom_main_text2,Your friend says: <br/><b>That's a big eagle.</b>
856,What do you think your friend meant?,NA,It is big  relative to other,Fri Nov 22 2019 11:08:29 GMT-0800 (Pacific Standard Time),ref-utility/doberman-5-6.png,24,NA,NA,NA,None,2,dogs1,patricia,NA,1,yes,"Your friend runs far ahead of you, and you see him in the distance:",prenominal,warmup/doberman.png,23,dobermans,NA,1,NA,NA,some_college,big,English,male,NA,NA,You and your friend see the following:,3,1574449709769,NA,NA,1,NA,NA,congr,custom_main_text2,Your friend says: <br/><b>That's a big doberman.</b>
855,NA,dog,NA,Fri Nov 22 2019 14:00:39 GMT-0500 (Eastern Standard Time),NA,24,warmup/great-dane.jpg,pug,This is a,No,1,dogs,jessica,great dane,NA,yes,Please label the pictures below.,NA,NA,31,NA,NA,NA,warmup/pug.jpg,dogs,some_college,NA,English,male,NA,dogs,NA,1,1574449239477,1,This is a,1,These are both,dog,NA,warmup1,NA
855,NA,pug,NA,Fri Nov 22 2019 14:00:39 GMT-0500 (Eastern Standard Time),NA,24,warmup/great-dane.jpg,pug,This is a,No,1,dogs,jessica,great dane,NA,yes,Please label the pictures below.,NA,NA,31,NA,NA,NA,warmup/pug.jpg,dogs,some_college,NA,English,male,NA,dogs,NA,1,1574449239477,2,This is a,1,These are both,great dane,NA,warmup1,NA
855,NA,chihuahua,NA,Fri Nov 22 2019 14:00:39 GMT-0500 (Eastern Standard Time),NA,24,warmup/doberman_warmup.png,chihuahua,This is a,No,1,dogs,jessica,doberman,NA,yes,Please label the pictures below.,NA,NA,31,NA,NA,NA,warmup/chihuahua.jpg,dogs,some_college,NA,English,male,NA,dogs,NA,2,1574449239477,1,This is a,1,These are both,rottweiler,NA,warmup1,NA
855,NA,chihuahua,NA,Fri Nov 22 2019 14:00:39 GMT-0500 (Eastern Standard Time),NA,24,warmup/doberman_warmup.png,chihuahua,This is a,No,1,dogs,jessica,doberman,NA,yes,Please label the pictures below.,NA,NA,31,NA,NA,NA,warmup/chihuahua.jpg,dogs,some_college,NA,English,male,NA,dogs,NA,2,1574449239477,2,This is a,1,These are both,doberman,NA,warmup1,NA
855,NA,hummingbird,NA,Fri Nov 22 2019 14:00:39 GMT-0500 (Eastern Standard Time),NA,24,warmup/eagle.jpg,hummingbird,This is a,No,1,birds,jessica,eagle,NA,yes,Please label the pictures below.,NA,NA,31,NA,NA,NA,warmup/colibri.jpg,birds,some_college,NA,English,male,NA,birds,NA,3,1574449239477,1,This is an,1,These are both,bald eagle,NA,warmup1,NA
855,NA,hummingbird,NA,Fri Nov 22 2019 14:00:39 GMT-0500 (Eastern Standard Time),NA,24,warmup/eagle.jpg,hummingbird,This is a,No,1,birds,jessica,eagle,NA,yes,Please label the pictures below.,NA,NA,31,NA,NA,NA,warmup/colibri.jpg,birds,some_college,NA,English,male,NA,birds,NA,3,1574449239477,2,This is an,1,These are both,eagle,NA,warmup1,NA
855,What do you think your friend meant?,NA,It is big  relative to other,Fri Nov 22 2019 14:00:39 GMT-0500 (Eastern Standard Time),ref-utility/doberman-5-6.png,24,NA,NA,NA,No,1,dogs1,jessica,NA,1,yes,"Your friend runs far ahead of you, and you see him in the distance:",prenominal,warmup/doberman.png,31,dobermans,NA,1,NA,NA,some_college,big,English,male,NA,NA,You and your friend see the following:,1,1574449239477,NA,NA,1,NA,NA,congr,custom_main_text1,Your friend says: <br/><b>That's a big doberman.</b>
855,What do you think your friend meant?,NA,It is big  relative to other,Fri Nov 22 2019 14:00:39 GMT-0500 (Eastern Standard Time),ref-utility/eagles-5-6.png,24,NA,NA,NA,No,1,birds,jessica,NA,1,yes,"Your friend runs far ahead of you, and you see him in the distance:",prenominal,warmup/eagle.png,31,birds,NA,1,NA,NA,some_college,big,English,male,NA,NA,You and your friend see the following:,2,1574449239477,NA,NA,1,NA,NA,congr,custom_main_text1,Your friend says: <br/><b>That's a big eagle.</b>
855,What do you think your friend meant?,NA,It is big  relative to other,Fri Nov 22 2019 14:00:39 GMT-0500 (Eastern Standard Time),ref-utility/great-danes-5-6.png,24,NA,NA,NA,No,1,dogs2,jessica,NA,1,yes,"Your friend runs far ahead of you, and you see him in the distance:",prenominal,warmup/great-dane.png,31,dogs,NA,1,NA,NA,some_college,big,English,male,NA,NA,You and your friend see the following:,3,1574449239477,NA,NA,1,NA,NA,congr,custom_main_text1,Your friend says: <br/><b>That's a big great dane.</b>
855,NA,flower,NA,Fri Nov 22 2019 14:00:39 GMT-0500 (Eastern Standard Time),NA,24,warmup/sunflower_warmup.png,dandelion,This is a,No,1,flowers,jessica,sunflower,NA,yes,Please label the pictures below.,NA,NA,31,NA,NA,NA,warmup/dandelion.jpg,flowers,some_college,NA,English,male,NA,flowers,NA,1,1574449239477,1,This is a,1,These are both,sunflower,NA,warmup2,NA
855,NA,dandelion,NA,Fri Nov 22 2019 14:00:39 GMT-0500 (Eastern Standard Time),NA,24,warmup/sunflower_warmup.png,dandelion,This is a,No,1,flowers,jessica,sunflower,NA,yes,Please label the pictures below.,NA,NA,31,NA,NA,NA,warmup/dandelion.jpg,flowers,some_college,NA,English,male,NA,flowers,NA,1,1574449239477,2,This is a,1,These are both,sunflower,NA,warmup2,NA
855,NA,tree,NA,Fri Nov 22 2019 14:00:39 GMT-0500 (Eastern Standard Time),NA,24,warmup/bonsai.jpg,redwood or sequoia (choose one),This is a,No,1,trees,jessica,bonsai,NA,yes,Please label the pictures below.,NA,NA,31,NA,NA,NA,warmup/sequoia.png,trees,some_college,NA,English,male,NA,trees,NA,2,1574449239477,1,This is a,1,These are both,banzai,NA,warmup2,NA
855,NA,redwood,NA,Fri Nov 22 2019 14:00:39 GMT-0500 (Eastern Standard Time),NA,24,warmup/bonsai.jpg,redwood or sequoia (choose one),This is a,No,1,trees,jessica,bonsai,NA,yes,Please label the pictures below.,NA,NA,31,NA,NA,NA,warmup/sequoia.png,trees,some_college,NA,English,male,NA,trees,NA,2,1574449239477,2,This is a,1,These are both,bonsai,NA,warmup2,NA
855,NA,swordfish,NA,Fri Nov 22 2019 14:00:39 GMT-0500 (Eastern Standard Time),NA,24,warmup/goldfish_warmup.png,swordfish,This is a,No,1,fish,jessica,goldfish,NA,yes,Please label the pictures below.,NA,NA,31,NA,NA,NA,warmup/swordfish.jpg,fish,some_college,NA,English,male,NA,fish,NA,3,1574449239477,1,This is a,1,These are both,goldfish,NA,warmup2,NA
855,What do you think your friend meant?,NA,It is small  relative to other,Fri Nov 22 2019 14:00:39 GMT-0500 (Eastern Standard Time),ref-utility/dandelions-5-6.png,24,NA,NA,NA,No,1,flowers,jessica,NA,1,yes,"Your friend runs far ahead of you, and you see him in the distance:",prenominal,warmup/dandelion.png,31,roses,NA,1,NA,NA,some_college,small,English,male,NA,NA,You and your friend see the following:,1,1574449239477,NA,NA,1,NA,NA,congr,custom_main_text2,Your friend says: <br/><b>That's a small dandelion.</b>
855,What do you think your friend meant?,NA,It is small  relative to other,Fri Nov 22 2019 14:00:39 GMT-0500 (Eastern Standard Time),ref-utility/goldfish-5-6.png,24,NA,NA,NA,No,1,fish,jessica,NA,1,yes,"Your friend runs far ahead of you, and you see him in the distance:",prenominal,warmup/goldfish.png,31,salmon,NA,1,NA,NA,some_college,small,English,male,NA,NA,You and your friend see the following:,2,1574449239477,NA,NA,1,NA,NA,congr,custom_main_text2,Your friend says: <br/><b>That's a small goldfish.</b>
855,What do you think your friend meant?,NA,It is small  relative to other,Fri Nov 22 2019 14:00:39 GMT-0500 (Eastern Standard Time),ref-utility/bonsais-5-6.png,24,NA,NA,NA,No,1,trees,jessica,NA,1,yes,"Your friend runs far ahead of you, and you see him in the distance:",prenominal,warmup/bonsai.png,31,bonsai,NA,1,NA,NA,some_college,small,English,male,NA,NA,You and your friend see the following:,3,1574449239477,NA,NA,1,NA,NA,congr,custom_main_text2,Your friend says: <br/><b>That's a small bonsai.</b>
854,NA,pug,NA,Fri Nov 22 2019 14:06:17 GMT-0500 (Eastern Standard Time),NA,24,warmup/great-dane.jpg,pug,This is a,none,2,dogs,susan,great dane,NA,NA,Please label the pictures below.,NA,NA,NA,NA,NA,NA,warmup/pug.jpg,dogs.,higher_degree,NA,English,NA,NA,dogs,NA,1,1574449577057,1,This is a,1,These are both,terrier,NA,warmup1,NA
854,NA,pug,NA,Fri Nov 22 2019 14:06:17 GMT-0500 (Eastern Standard Time),NA,24,warmup/great-dane.jpg,pug,This is a,none,2,dogs,susan,great dane,NA,NA,Please label the pictures below.,NA,NA,NA,NA,NA,NA,warmup/pug.jpg,dogs.,higher_degree,NA,English,NA,NA,dogs,NA,1,1574449577057,2,This is a,1,These are both,great dane,NA,warmup1,NA
854,NA,pug,NA,Fri Nov 22 2019 14:06:17 GMT-0500 (Eastern Standard Time),NA,24,warmup/great-dane.jpg,pug,This is a,none,2,dogs,susan,great dane,NA,NA,Please label the pictures below.,NA,NA,NA,NA,NA,NA,warmup/pug.jpg,dogs.,higher_degree,NA,English,NA,NA,dogs,NA,1,1574449577057,3,This is a,1,These are both,great dane,NA,warmup1,NA
854,NA,pug,NA,Fri Nov 22 2019 14:06:17 GMT-0500 (Eastern Standard Time),NA,24,warmup/great-dane.jpg,pug,This is a,none,2,dogs,susan,great dane,NA,NA,Please label the pictures below.,NA,NA,NA,NA,NA,NA,warmup/pug.jpg,dogs,higher_degree,NA,English,NA,NA,dogs,NA,1,1574449577057,4,This is a,1,These are both,great dane,NA,warmup1,NA
854,NA,tree,NA,Fri Nov 22 2019 14:06:17 GMT-0500 (Eastern Standard Time),NA,24,warmup/bonsai.jpg,redwood or sequoia (choose one),This is a,none,2,trees,susan,bonsai,NA,NA,Please label the pictures below.,NA,NA,NA,NA,NA,NA,warmup/sequoia.png,plants,higher_degree,NA,English,NA,NA,trees,NA,2,1574449577057,1,This is a,1,These are both,bonsai,NA,warmup1,NA
854,NA,redwod,NA,Fri Nov 22 2019 14:06:17 GMT-0500 (Eastern Standard Time),NA,24,warmup/bonsai.jpg,redwood or sequoia (choose one),This is a,none,2,trees,susan,bonsai,NA,NA,Please label the pictures below.,NA,NA,NA,NA,NA,NA,warmup/sequoia.png,trees,higher_degree,NA,English,NA,NA,trees,NA,2,1574449577057,2,This is a,1,These are both,bonsai,NA,warmup1,NA
854,NA,redwod,NA,Fri Nov 22 2019 14:06:17 GMT-0500 (Eastern Standard Time),NA,24,warmup/bonsai.jpg,redwood or sequoia (choose one),This is a,none,2,trees,susan,bonsai,NA,NA,Please label the pictures below.,NA,NA,NA,NA,NA,NA,warmup/sequoia.png,trees,higher_degree,NA,English,NA,NA,trees,NA,2,1574449577057,3,This is a,1,These are both,bonsai,NA,warmup1,NA
854,NA,redwood,NA,Fri Nov 22 2019 14:06:17 GMT-0500 (Eastern Standard Time),NA,24,warmup/bonsai.jpg,redwood or sequoia (choose one),This is a,none,2,trees,susan,bonsai,NA,NA,Please label the pictures below.,NA,NA,NA,NA,NA,NA,warmup/sequoia.png,trees,higher_degree,NA,English,NA,NA,trees,NA,2,1574449577057,4,This is a,1,These are both,bonsai,NA,warmup1,NA
854,NA,terrier,NA,Fri Nov 22 2019 14:06:17 GMT-0500 (Eastern Standard Time),NA,24,warmup/doberman_warmup.png,chihuahua,This is a,none,2,dogs,susan,doberman,NA,NA,Please label the pictures below.,NA,NA,NA,NA,NA,NA,warmup/chihuahua.jpg,dogs,higher_degree,NA,English,NA,NA,dogs,NA,3,1574449577057,1,This is a,1,These are both,doberman,NA,warmup1,NA
854,NA,chihuahua,NA,Fri Nov 22 2019 14:06:17 GMT-0500 (Eastern Standard Time),NA,24,warmup/doberman_warmup.png,chihuahua,This is a,none,2,dogs,susan,doberman,NA,NA,Please label the pictures below.,NA,NA,NA,NA,NA,NA,warmup/chihuahua.jpg,dogs,higher_degree,NA,English,NA,NA,dogs,NA,3,1574449577057,2,This is a,1,These are both,doberman,NA,warmup1,NA
854,What do you think your friend meant?,NA,It is small  relative to other,Fri Nov 22 2019 14:06:17 GMT-0500 (Eastern Standard Time),ref-utility/bonsais-5-6.png,24,NA,NA,NA,none,2,trees,susan,NA,1,NA,"Your friend runs far ahead of you, and you see him in the distance:",prenominal,warmup/bonsai.png,NA,bonsai,NA,1,NA,NA,higher_degree,small,English,NA,NA,NA,You and your friend see the following:,1,1574449577057,NA,NA,1,NA,NA,congr,custom_main_text1,Your friend says: <br/><b>That's a small bonsai.</b>
854,What do you think your friend meant?,NA,It is big  relative to other,Fri Nov 22 2019 14:06:17 GMT-0500 (Eastern Standard Time),ref-utility/great-danes-5-6.png,24,NA,NA,NA,none,2,dogs2,susan,NA,1,NA,"Your friend runs far ahead of you, and you see him in the distance:",prenominal,warmup/great-dane.png,NA,dogs,NA,1,NA,NA,higher_degree,big,English,NA,NA,NA,You and your friend see the following:,2,1574449577057,NA,NA,1,NA,NA,congr,custom_main_text1,Your friend says: <br/><b>That's a big great dane.</b>
854,What do you think your friend meant?,NA,It is small  relative to other,Fri Nov 22 2019 14:06:17 GMT-0500 (Eastern Standard Time),ref-utility/chihuahuas-5-6.png,24,NA,NA,NA,none,2,dogs1,susan,NA,1,NA,"Your friend runs far ahead of you, and you see him in the distance:",prenominal,warmup/chihuahua.png,NA,chihuahuas,NA,1,NA,NA,higher_degree,small,English,NA,NA,NA,You and your friend see the following:,3,1574449577057,NA,NA,1,NA,NA,congr,custom_main_text1,Your friend says: <br/><b>That's a small chihuahua.</b>
854,NA,sunflower,NA,Fri Nov 22 2019 14:06:17 GMT-0500 (Eastern Standard Time),NA,24,warmup/sunflower_warmup.png,dandelion,This is a,none,2,flowers,susan,sunflower,NA,NA,Please label the pictures below.,NA,NA,NA,NA,NA,NA,warmup/dandelion.jpg,plants,higher_degree,NA,English,NA,NA,flowers,NA,1,1574449577057,1,This is a,1,These are both,sunflower,NA,warmup2,NA
854,NA,dandelion,NA,Fri Nov 22 2019 14:06:17 GMT-0500 (Eastern Standard Time),NA,24,warmup/sunflower_warmup.png,dandelion,This is a,none,2,flowers,susan,sunflower,NA,NA,Please label the pictures below.,NA,NA,NA,NA,NA,NA,warmup/dandelion.jpg,flowers,higher_degree,NA,English,NA,NA,flowers,NA,1,1574449577057,2,This is a,1,These are both,sunflower,NA,warmup2,NA
854,NA,humming bird,NA,Fri Nov 22 2019 14:06:17 GMT-0500 (Eastern Standard Time),NA,24,warmup/eagle.jpg,hummingbird,This is a,none,2,birds,susan,eagle,NA,NA,Please label the pictures below.,NA,NA,NA,NA,NA,NA,warmup/colibri.jpg,birds,higher_degree,NA,English,NA,NA,birds,NA,2,1574449577057,1,This is an,1,These are both,eagle,NA,warmup2,NA
854,NA,hummingbird,NA,Fri Nov 22 2019 14:06:17 GMT-0500 (Eastern Standard Time),NA,24,warmup/eagle.jpg,hummingbird,This is a,none,2,birds,susan,eagle,NA,NA,Please label the pictures below.,NA,NA,NA,NA,NA,NA,warmup/colibri.jpg,birds,higher_degree,NA,English,NA,NA,birds,NA,2,1574449577057,2,This is an,1,These are both,eagle,NA,warmup2,NA
854,NA,swordrtail,NA,Fri Nov 22 2019 14:06:17 GMT-0500 (Eastern Standard Time),NA,24,warmup/goldfish_warmup.png,swordfish,This is a,none,2,fish,susan,goldfish,NA,NA,Please label the pictures below.,NA,NA,NA,NA,NA,NA,warmup/swordfish.jpg,fish,higher_degree,NA,English,NA,NA,fish,NA,3,1574449577057,1,This is a,1,These are both,goldfish,NA,warmup2,NA
854,NA,swordfish,NA,Fri Nov 22 2019 14:06:17 GMT-0500 (Eastern Standard Time),NA,24,warmup/goldfish_warmup.png,swordfish,This is a,none,2,fish,susan,goldfish,NA,NA,Please label the pictures below.,NA,NA,NA,NA,NA,NA,warmup/swordfish.jpg,fish,higher_degree,NA,English,NA,NA,fish,NA,3,1574449577057,2,This is a,1,These are both,goldfish,NA,warmup2,NA
854,What do you think your friend meant?,NA,It is small  relative to other,Fri Nov 22 2019 14:06:17 GMT-0500 (Eastern Standard Time),ref-utility/goldfish-5-6.png,24,NA,NA,NA,none,2,fish,susan,NA,1,NA,"Your friend runs far ahead of you, and you see him in the distance:",prenominal,warmup/goldfish.png,NA,goldfish,NA,1,NA,NA,higher_degree,small,English,NA,NA,NA,You and your friend see the following:,1,1574449577057,NA,NA,1,NA,NA,congr,custom_main_text2,Your friend says: <br/><b>That's a small goldfish.</b>
854,What do you think your friend meant?,NA,It is big  relative to other,Fri Nov 22 2019 14:06:17 GMT-0500 (Eastern Standard Time),ref-utility/sunflowers-5-6.png,24,NA,NA,NA,none,2,flowers,susan,NA,1,NA,"Your friend runs far ahead of you, and you see him in the distance:",prenominal,warmup/sunflower.png,NA,sunflowers,NA,1,NA,NA,higher_degree,big,English,NA,NA,NA,You and your friend see the following:,2,1574449577057,NA,NA,1,NA,NA,congr,custom_main_text2,Your friend says: <br/><b>That's a big sunflower.</b>
854,What do you think your friend meant?,NA,It is big  relative to other,Fri Nov 22 2019 14:06:17 GMT-0500 (Eastern Standard Time),ref-utility/eagles-5-6.png,24,NA,NA,NA,none,2,birds,susan,NA,1,NA,"Your friend runs far ahead of you, and you see him in the distance:",prenominal,warmup/eagle.png,NA,birds,NA,1,NA,NA,higher_degree,big,English,NA,NA,NA,You and your friend see the following:,3,1574449577057,NA,NA,1,NA,NA,congr,custom_main_text2,Your friend says: <br/><b>That's a big eagle.</b>
853,NA,small dog,NA,Fri Nov 22 2019 11:05:26 GMT-0800 (Pacific Standard Time),NA,24,warmup/doberman_warmup.png,chihuahua,This is a,no,0,dogs,margaret,doberman,NA,NA,Please label the pictures below.,NA,NA,NA,NA,"I swear I'm not dumb, I honestly don't know breeds of dogs, etc. Geez, I feel stupid!",NA,warmup/chihuahua.jpg,dog,graduated_college,NA,English,NA,NA,dogs,NA,1,1574449526697,1,This is a,1,These are both,big dog,NA,warmup1,NA
853,NA,chihuauhua,NA,Fri Nov 22 2019 11:05:26 GMT-0800 (Pacific Standard Time),NA,24,warmup/doberman_warmup.png,chihuahua,This is a,no,0,dogs,margaret,doberman,NA,NA,Please label the pictures below.,NA,NA,NA,NA,"I swear I'm not dumb, I honestly don't know breeds of dogs, etc. Geez, I feel stupid!",NA,warmup/chihuahua.jpg,dogs,graduated_college,NA,English,NA,NA,dogs,NA,1,1574449526697,2,This is a,1,These are both,doberman,NA,warmup1,NA
853,NA,chihuahua,NA,Fri Nov 22 2019 11:05:26 GMT-0800 (Pacific Standard Time),NA,24,warmup/doberman_warmup.png,chihuahua,This is a,no,0,dogs,margaret,doberman,NA,NA,Please label the pictures below.,NA,NA,NA,NA,"I swear I'm not dumb, I honestly don't know breeds of dogs, etc. Geez, I feel stupid!",NA,warmup/chihuahua.jpg,dogs,graduated_college,NA,English,NA,NA,dogs,NA,1,1574449526697,3,This is a,1,These are both,doberman,NA,warmup1,NA
853,NA,pug,NA,Fri Nov 22 2019 11:05:26 GMT-0800 (Pacific Standard Time),NA,24,warmup/great-dane.jpg,pug,This is a,no,0,dogs,margaret,great dane,NA,NA,Please label the pictures below.,NA,NA,NA,NA,"I swear I'm not dumb, I honestly don't know breeds of dogs, etc. Geez, I feel stupid!",NA,warmup/pug.jpg,dogs,graduated_college,NA,English,NA,NA,dogs,NA,2,1574449526697,1,This is a,1,These are both,lab,NA,warmup1,NA
853,NA,pug,NA,Fri Nov 22 2019 11:05:26 GMT-0800 (Pacific Standard Time),NA,24,warmup/great-dane.jpg,pug,This is a,no,0,dogs,margaret,great dane,NA,NA,Please label the pictures below.,NA,NA,NA,NA,"I swear I'm not dumb, I honestly don't know breeds of dogs, etc. Geez, I feel stupid!",NA,warmup/pug.jpg,dogs,graduated_college,NA,English,NA,NA,dogs,NA,2,1574449526697,2,This is a,1,These are both,great dane,NA,warmup1,NA
853,NA,hummingbird,NA,Fri Nov 22 2019 11:05:26 GMT-0800 (Pacific Standard Time),NA,24,warmup/eagle.jpg,hummingbird,This is a,no,0,birds,margaret,eagle,NA,NA,Please label the pictures below.,NA,NA,NA,NA,"I swear I'm not dumb, I honestly don't know breeds of dogs, etc. Geez, I feel stupid!",NA,warmup/colibri.jpg,birds,graduated_college,NA,English,NA,NA,birds,NA,3,1574449526697,1,This is an,1,These are both,eagle,NA,warmup1,NA
853,What do you think your friend meant?,NA,It is small  relative to other,Fri Nov 22 2019 11:05:26 GMT-0800 (Pacific Standard Time),ref-utility/chihuahuas-5-6.png,24,NA,NA,NA,no,0,dogs1,margaret,NA,1,NA,"Your friend runs far ahead of you, and you see him in the distance:",prenominal,warmup/chihuahua.png,NA,dogs,"I swear I'm not dumb, I honestly don't know breeds of dogs, etc. Geez, I feel stupid!",1,NA,NA,graduated_college,small,English,NA,NA,NA,You and your friend see the following:,1,1574449526697,NA,NA,1,NA,NA,congr,custom_main_text1,Your friend says: <br/><b>That's a small chihuahua.</b>
853,What do you think your friend meant?,NA,It is big  relative to other,Fri Nov 22 2019 11:05:26 GMT-0800 (Pacific Standard Time),ref-utility/great-danes-5-6.png,24,NA,NA,NA,no,0,dogs2,margaret,NA,1,NA,"Your friend runs far ahead of you, and you see him in the distance:",prenominal,warmup/great-dane.png,NA,dogs,"I swear I'm not dumb, I honestly don't know breeds of dogs, etc. Geez, I feel stupid!",1,NA,NA,graduated_college,big,English,NA,NA,NA,You and your friend see the following:,2,1574449526697,NA,NA,1,NA,NA,congr,custom_main_text1,Your friend says: <br/><b>That's a big great dane.</b>
853,What do you think your friend meant?,NA,It is small  relative to other,Fri Nov 22 2019 11:05:26 GMT-0800 (Pacific Standard Time),ref-utility/hummingbirds-5-6.png,24,NA,NA,NA,no,0,birds,margaret,NA,1,NA,"Your friend runs far ahead of you, and you see him in the distance:",prenominal,warmup/hummingbird.png,NA,birds,"I swear I'm not dumb, I honestly don't know breeds of dogs, etc. Geez, I feel stupid!",1,NA,NA,graduated_college,small,English,NA,NA,NA,You and your friend see the following:,3,1574449526697,NA,NA,1,NA,NA,congr,custom_main_text1,Your friend says: <br/><b>That's a small hummingbird.</b>
853,NA,marlin,NA,Fri Nov 22 2019 11:05:26 GMT-0800 (Pacific Standard Time),NA,24,warmup/goldfish_warmup.png,swordfish,This is a,no,0,fish,margaret,goldfish,NA,NA,Please label the pictures below.,NA,NA,NA,NA,"I swear I'm not dumb, I honestly don't know breeds of dogs, etc. Geez, I feel stupid!",NA,warmup/swordfish.jpg,fish,graduated_college,NA,English,NA,NA,fish,NA,1,1574449526697,1,This is a,1,These are both,guppy,NA,warmup2,NA
853,NA,swordfish,NA,Fri Nov 22 2019 11:05:26 GMT-0800 (Pacific Standard Time),NA,24,warmup/goldfish_warmup.png,swordfish,This is a,no,0,fish,margaret,goldfish,NA,NA,Please label the pictures below.,NA,NA,NA,NA,"I swear I'm not dumb, I honestly don't know breeds of dogs, etc. Geez, I feel stupid!",NA,warmup/swordfish.jpg,fish,graduated_college,NA,English,NA,NA,fish,NA,1,1574449526697,2,This is a,1,These are both,goldfish,NA,warmup2,NA
853,NA,dandelion,NA,Fri Nov 22 2019 11:05:26 GMT-0800 (Pacific Standard Time),NA,24,warmup/sunflower_warmup.png,dandelion,This is a,no,0,flowers,margaret,sunflower,NA,NA,Please label the pictures below.,NA,NA,NA,NA,"I swear I'm not dumb, I honestly don't know breeds of dogs, etc. Geez, I feel stupid!",NA,warmup/dandelion.jpg,flowers,graduated_college,NA,English,NA,NA,flowers,NA,2,1574449526697,1,This is a,1,These are both,sunflower,NA,warmup2,NA
853,NA,cedar tree,NA,Fri Nov 22 2019 11:05:26 GMT-0800 (Pacific Standard Time),NA,24,warmup/bonsai.jpg,redwood or sequoia (choose one),This is a,no,0,trees,margaret,bonsai,NA,NA,Please label the pictures below.,NA,NA,NA,NA,"I swear I'm not dumb, I honestly don't know breeds of dogs, etc. Geez, I feel stupid!",NA,warmup/sequoia.png,trees,graduated_college,NA,English,NA,NA,trees,NA,3,1574449526697,1,This is a,1,These are both,bonsai,NA,warmup2,NA
853,NA,redwood,NA,Fri Nov 22 2019 11:05:26 GMT-0800 (Pacific Standard Time),NA,24,warmup/bonsai.jpg,redwood or sequoia (choose one),This is a,no,0,trees,margaret,bonsai,NA,NA,Please label the pictures below.,NA,NA,NA,NA,"I swear I'm not dumb, I honestly don't know breeds of dogs, etc. Geez, I feel stupid!",NA,warmup/sequoia.png,trees,graduated_college,NA,English,NA,NA,trees,NA,3,1574449526697,2,This is a,1,These are both,bonsai,NA,warmup2,NA
853,What do you think your friend meant?,NA,It is big  relative to other,Fri Nov 22 2019 11:05:26 GMT-0800 (Pacific Standard Time),ref-utility/swordfish-5-6.png,24,NA,NA,NA,no,0,fish,margaret,NA,1,NA,"Your friend runs far ahead of you, and you see him in the distance:",prenominal,warmup/swordfish.png,NA,fish,"I swear I'm not dumb, I honestly don't know breeds of dogs, etc. Geez, I feel stupid!",1,NA,NA,graduated_college,big,English,NA,NA,NA,You and your friend see the following:,1,1574449526697,NA,NA,1,NA,NA,congr,custom_main_text2,Your friend says: <br/><b>That's a big swordfish.</b>
853,What do you think your friend meant?,NA,It is big  relative to other,Fri Nov 22 2019 11:05:26 GMT-0800 (Pacific Standard Time),ref-utility/redwoods-5-6.png,24,NA,NA,NA,no,0,trees,margaret,NA,1,NA,"Your friend runs far ahead of you, and you see him in the distance:",prenominal,warmup/redwood.png,NA,trees,"I swear I'm not dumb, I honestly don't know breeds of dogs, etc. Geez, I feel stupid!",1,NA,NA,graduated_college,big,English,NA,NA,NA,You and your friend see the following:,2,1574449526697,NA,NA,1,NA,NA,congr,custom_main_text2,Your friend says: <br/><b>That's a big redwood.</b>
853,What do you think your friend meant?,NA,It is small  relative to other,Fri Nov 22 2019 11:05:26 GMT-0800 (Pacific Standard Time),ref-utility/dandelions-5-6.png,24,NA,NA,NA,no,0,flowers,margaret,NA,1,NA,"Your friend runs far ahead of you, and you see him in the distance:",prenominal,warmup/dandelion.png,NA,weeds,"I swear I'm not dumb, I honestly don't know breeds of dogs, etc. Geez, I feel stupid!",1,NA,NA,graduated_college,small,English,NA,NA,NA,You and your friend see the following:,3,1574449526697,NA,NA,1,NA,NA,congr,custom_main_text2,Your friend says: <br/><b>That's a small dandelion.</b>
848,NA,Dolphin,NA,Fri Nov 22 2019 10:55:22 GMT-0800 (Pacific Standard Time),NA,24,warmup/goldfish_warmup.png,swordfish,This is a,No,2,fish,elizabeth,goldfish,NA,yes,Please label the pictures below.,NA,NA,29,NA,Good,NA,warmup/swordfish.jpg,Fishes,graduated_college,NA,English,male,NA,fish,NA,1,1574448922497,1,This is a,1,These are both,Yellow orange fish,NA,warmup1,NA
848,NA,swordfish,NA,Fri Nov 22 2019 10:55:22 GMT-0800 (Pacific Standard Time),NA,24,warmup/goldfish_warmup.png,swordfish,This is a,No,2,fish,elizabeth,goldfish,NA,yes,Please label the pictures below.,NA,NA,29,NA,Good,NA,warmup/swordfish.jpg,Fish,graduated_college,NA,English,male,NA,fish,NA,1,1574448922497,2,This is a,1,These are both,goldfish,NA,warmup1,NA
848,NA,Sparrow,NA,Fri Nov 22 2019 10:55:22 GMT-0800 (Pacific Standard Time),NA,24,warmup/eagle.jpg,hummingbird,This is a,No,2,birds,elizabeth,eagle,NA,yes,Please label the pictures below.,NA,NA,29,NA,Good,NA,warmup/colibri.jpg,Bird,graduated_college,NA,English,male,NA,birds,NA,2,1574448922497,1,This is an,1,These are both,Eagle,NA,warmup1,NA
848,NA,hummingbird,NA,Fri Nov 22 2019 10:55:22 GMT-0800 (Pacific Standard Time),NA,24,warmup/eagle.jpg,hummingbird,This is a,No,2,birds,elizabeth,eagle,NA,yes,Please label the pictures below.,NA,NA,29,NA,Good,NA,warmup/colibri.jpg,Birds,graduated_college,NA,English,male,NA,birds,NA,2,1574448922497,2,This is an,1,These are both,Eagle,NA,warmup1,NA
848,NA,Pug,NA,Fri Nov 22 2019 10:55:22 GMT-0800 (Pacific Standard Time),NA,24,warmup/great-dane.jpg,pug,This is a,No,2,dogs,elizabeth,great dane,NA,yes,Please label the pictures below.,NA,NA,29,NA,Good,NA,warmup/pug.jpg,dogs,graduated_college,NA,English,male,NA,dogs,NA,3,1574448922497,1,This is a,1,These are both,Dobermann,NA,warmup1,NA
848,NA,Pug,NA,Fri Nov 22 2019 10:55:22 GMT-0800 (Pacific Standard Time),NA,24,warmup/great-dane.jpg,pug,This is a,No,2,dogs,elizabeth,great dane,NA,yes,Please label the pictures below.,NA,NA,29,NA,Good,NA,warmup/pug.jpg,dogs,graduated_college,NA,English,male,NA,dogs,NA,3,1574448922497,2,This is a,1,These are both,great dane,NA,warmup1,NA
848,What do you think your friend meant?,NA,It is small  relative to other,Fri Nov 22 2019 10:55:22 GMT-0800 (Pacific Standard Time),ref-utility/goldfish-5-6.png,24,NA,NA,NA,No,2,fish,elizabeth,NA,1,yes,"Your friend runs far ahead of you, and you see him in the distance:",prenominal,warmup/goldfish.png,29,fish,Good,1,NA,NA,graduated_college,small,English,male,NA,NA,You and your friend see the following:,1,1574448922497,NA,NA,1,NA,NA,congr,custom_main_text1,Your friend says: <br/><b>That's a small goldfish.</b>
848,What do you think your friend meant?,NA,It is big  relative to other,Fri Nov 22 2019 10:55:22 GMT-0800 (Pacific Standard Time),ref-utility/eagles-5-6.png,24,NA,NA,NA,No,2,birds,elizabeth,NA,1,yes,"Your friend runs far ahead of you, and you see him in the distance:",prenominal,warmup/eagle.png,29,eagles,Good,1,NA,NA,graduated_college,big,English,male,NA,NA,You and your friend see the following:,2,1574448922497,NA,NA,1,NA,NA,congr,custom_main_text1,Your friend says: <br/><b>That's a big eagle.</b>
848,What do you think your friend meant?,NA,It is small  relative to other,Fri Nov 22 2019 10:55:22 GMT-0800 (Pacific Standard Time),ref-utility/pugs-5-6.png,24,NA,NA,NA,No,2,dogs2,elizabeth,NA,1,yes,"Your friend runs far ahead of you, and you see him in the distance:",prenominal,warmup/pug.png,29,dogs,Good,1,NA,NA,graduated_college,small,English,male,NA,NA,You and your friend see the following:,3,1574448922497,NA,NA,1,NA,NA,congr,custom_main_text1,Your friend says: <br/><b>That's a small pug.</b>
848,NA,puppy,NA,Fri Nov 22 2019 10:55:22 GMT-0800 (Pacific Standard Time),NA,24,warmup/doberman_warmup.png,chihuahua,This is a,No,2,dogs,elizabeth,doberman,NA,yes,Please label the pictures below.,NA,NA,29,NA,Good,NA,warmup/chihuahua.jpg,dogs,graduated_college,NA,English,male,NA,dogs,NA,1,1574448922497,1,This is a,1,These are both,dobermann,NA,warmup2,NA
848,NA,chihuahua,NA,Fri Nov 22 2019 10:55:22 GMT-0800 (Pacific Standard Time),NA,24,warmup/doberman_warmup.png,chihuahua,This is a,No,2,dogs,elizabeth,doberman,NA,yes,Please label the pictures below.,NA,NA,29,NA,Good,NA,warmup/chihuahua.jpg,dogs,graduated_college,NA,English,male,NA,dogs,NA,1,1574448922497,2,This is a,1,These are both,doberman,NA,warmup2,NA
848,NA,Tulip,NA,Fri Nov 22 2019 10:55:22 GMT-0800 (Pacific Standard Time),NA,24,warmup/sunflower_warmup.png,dandelion,This is a,No,2,flowers,elizabeth,sunflower,NA,yes,Please label the pictures below.,NA,NA,29,NA,Good,NA,warmup/dandelion.jpg,flowers,graduated_college,NA,English,male,NA,flowers,NA,2,1574448922497,1,This is a,1,These are both,Sunflower,NA,warmup2,NA
848,NA,dandelion,NA,Fri Nov 22 2019 10:55:22 GMT-0800 (Pacific Standard Time),NA,24,warmup/sunflower_warmup.png,dandelion,This is a,No,2,flowers,elizabeth,sunflower,NA,yes,Please label the pictures below.,NA,NA,29,NA,Good,NA,warmup/dandelion.jpg,flowers,graduated_college,NA,English,male,NA,flowers,NA,2,1574448922497,2,This is a,1,These are both,Sunflower,NA,warmup2,NA
848,NA,hut,NA,Fri Nov 22 2019 10:55:22 GMT-0800 (Pacific Standard Time),NA,24,warmup/bonsai.jpg,redwood or sequoia (choose one),This is a,No,2,trees,elizabeth,bonsai,NA,yes,Please label the pictures below.,NA,NA,29,NA,Good,NA,warmup/sequoia.png,Trees,graduated_college,NA,English,male,NA,trees,NA,3,1574448922497,1,This is a,1,These are both,tulip,NA,warmup2,NA
848,NA,redwood,NA,Fri Nov 22 2019 10:55:22 GMT-0800 (Pacific Standard Time),NA,24,warmup/bonsai.jpg,redwood or sequoia (choose one),This is a,No,2,trees,elizabeth,bonsai,NA,yes,Please label the pictures below.,NA,NA,29,NA,Good,NA,warmup/sequoia.png,Trees,graduated_college,NA,English,male,NA,trees,NA,3,1574448922497,2,This is a,1,These are both,bonsai,NA,warmup2,NA
848,What do you think your friend meant?,NA,It is small  relative to other,Fri Nov 22 2019 10:55:22 GMT-0800 (Pacific Standard Time),ref-utility/chihuahuas-5-6.png,24,NA,NA,NA,No,2,dogs1,elizabeth,NA,1,yes,"Your friend runs far ahead of you, and you see him in the distance:",prenominal,warmup/chihuahua.png,29,dogs,Good,1,NA,NA,graduated_college,small,English,male,NA,NA,You and your friend see the following:,1,1574448922497,NA,NA,1,NA,NA,congr,custom_main_text2,Your friend says: <br/><b>That's a small chihuahua.</b>
848,What do you think your friend meant?,NA,It is big  relative to other,Fri Nov 22 2019 10:55:22 GMT-0800 (Pacific Standard Time),ref-utility/redwoods-5-6.png,24,NA,NA,NA,No,2,trees,elizabeth,NA,1,yes,"Your friend runs far ahead of you, and you see him in the distance:",prenominal,warmup/redwood.png,29,trees,Good,1,NA,NA,graduated_college,big,English,male,NA,NA,You and your friend see the following:,2,1574448922497,NA,NA,1,NA,NA,congr,custom_main_text2,Your friend says: <br/><b>That's a big redwood.</b>
848,What do you think your friend meant?,NA,It is big  relative to other,Fri Nov 22 2019 10:55:22 GMT-0800 (Pacific Standard Time),ref-utility/sunflowers-5-6.png,24,NA,NA,NA,No,2,flowers,elizabeth,NA,1,yes,"Your friend runs far ahead of you, and you see him in the distance:",prenominal,warmup/sunflower.png,29,flowers,Good,1,NA,NA,graduated_college,big,English,male,NA,NA,You and your friend see the following:,3,1574448922497,NA,NA,1,NA,NA,congr,custom_main_text2,Your friend says: <br/><b>That's a big sunflower.</b>
847,NA,chihuawah,NA,Fri Nov 22 2019 13:01:15 GMT-0600 (Central Standard Time),NA,24,warmup/doberman_warmup.png,chihuahua,This is a,none that i saw,2,dogs,mary,doberman,NA,yes,Please label the pictures below.,NA,NA,30,NA,NA,NA,warmup/chihuahua.jpg,dogs,graduated_college,NA,english,male,NA,dogs,NA,1,1574449275003,1,This is a,1,These are both,doberman,NA,warmup1,NA
847,NA,chihuahua,NA,Fri Nov 22 2019 13:01:15 GMT-0600 (Central Standard Time),NA,24,warmup/doberman_warmup.png,chihuahua,This is a,none that i saw,2,dogs,mary,doberman,NA,yes,Please label the pictures below.,NA,NA,30,NA,NA,NA,warmup/chihuahua.jpg,dogs,graduated_college,NA,english,male,NA,dogs,NA,1,1574449275003,2,This is a,1,These are both,doberman,NA,warmup1,NA
847,NA,hummingbird,NA,Fri Nov 22 2019 13:01:15 GMT-0600 (Central Standard Time),NA,24,warmup/eagle.jpg,hummingbird,This is a,none that i saw,2,birds,mary,eagle,NA,yes,Please label the pictures below.,NA,NA,30,NA,NA,NA,warmup/colibri.jpg,birds,graduated_college,NA,english,male,NA,birds,NA,2,1574449275003,1,This is an,1,These are both,eagle,NA,warmup1,NA
847,NA,swordfish,NA,Fri Nov 22 2019 13:01:15 GMT-0600 (Central Standard Time),NA,24,warmup/goldfish_warmup.png,swordfish,This is a,none that i saw,2,fish,mary,goldfish,NA,yes,Please label the pictures below.,NA,NA,30,NA,NA,NA,warmup/swordfish.jpg,fish,graduated_college,NA,english,male,NA,fish,NA,3,1574449275003,1,This is a,1,These are both,goldfish,NA,warmup1,NA
847,What do you think your friend meant?,NA,It is big  relative to other,Fri Nov 22 2019 13:01:15 GMT-0600 (Central Standard Time),ref-utility/swordfish-5-6.png,24,NA,NA,NA,none that i saw,2,fish,mary,NA,1,yes,"Your friend runs far ahead of you, and you see him in the distance:",prenominal,warmup/swordfish.png,30,swordfish,NA,1,NA,NA,graduated_college,big,english,male,NA,NA,You and your friend see the following:,1,1574449275003,NA,NA,1,NA,NA,congr,custom_main_text1,Your friend says: <br/><b>That's a big swordfish.</b>
847,What do you think your friend meant?,NA,It is big  relative to other,Fri Nov 22 2019 13:01:15 GMT-0600 (Central Standard Time),ref-utility/eagles-5-6.png,24,NA,NA,NA,none that i saw,2,birds,mary,NA,1,yes,"Your friend runs far ahead of you, and you see him in the distance:",prenominal,warmup/eagle.png,30,birds,NA,1,NA,NA,graduated_college,big,english,male,NA,NA,You and your friend see the following:,2,1574449275003,NA,NA,1,NA,NA,congr,custom_main_text1,Your friend says: <br/><b>That's a big eagle.</b>
847,What do you think your friend meant?,NA,It is big  relative to other,Fri Nov 22 2019 13:01:15 GMT-0600 (Central Standard Time),ref-utility/doberman-5-6.png,24,NA,NA,NA,none that i saw,2,dogs1,mary,NA,1,yes,"Your friend runs far ahead of you, and you see him in the distance:",prenominal,warmup/doberman.png,30,dobermans,NA,1,NA,NA,graduated_college,big,english,male,NA,NA,You and your friend see the following:,3,1574449275003,NA,NA,1,NA,NA,congr,custom_main_text1,Your friend says: <br/><b>That's a big doberman.</b>
847,NA,oak,NA,Fri Nov 22 2019 13:01:15 GMT-0600 (Central Standard Time),NA,24,warmup/bonsai.jpg,redwood or sequoia (choose one),This is a,none that i saw,2,trees,mary,bonsai,NA,yes,Please label the pictures below.,NA,NA,30,NA,NA,NA,warmup/sequoia.png,trees,graduated_college,NA,english,male,NA,trees,NA,1,1574449275003,1,This is a,1,These are both,bonzai,NA,warmup2,NA
847,NA,redwood,NA,Fri Nov 22 2019 13:01:15 GMT-0600 (Central Standard Time),NA,24,warmup/bonsai.jpg,redwood or sequoia (choose one),This is a,none that i saw,2,trees,mary,bonsai,NA,yes,Please label the pictures below.,NA,NA,30,NA,NA,NA,warmup/sequoia.png,trees,graduated_college,NA,english,male,NA,trees,NA,1,1574449275003,2,This is a,1,These are both,bonsai,NA,warmup2,NA
847,NA,pug,NA,Fri Nov 22 2019 13:01:15 GMT-0600 (Central Standard Time),NA,24,warmup/great-dane.jpg,pug,This is a,none that i saw,2,dogs,mary,great dane,NA,yes,Please label the pictures below.,NA,NA,30,NA,NA,NA,warmup/pug.jpg,gods,graduated_college,NA,english,male,NA,dogs,NA,2,1574449275003,1,This is a,1,These are both,doberman,NA,warmup2,NA
847,NA,pug,NA,Fri Nov 22 2019 13:01:15 GMT-0600 (Central Standard Time),NA,24,warmup/great-dane.jpg,pug,This is a,none that i saw,2,dogs,mary,great dane,NA,yes,Please label the pictures below.,NA,NA,30,NA,NA,NA,warmup/pug.jpg,dogs,graduated_college,NA,english,male,NA,dogs,NA,2,1574449275003,2,This is a,1,These are both,great dane,NA,warmup2,NA
847,NA,danilion,NA,Fri Nov 22 2019 13:01:15 GMT-0600 (Central Standard Time),NA,24,warmup/sunflower_warmup.png,dandelion,This is a,none that i saw,2,flowers,mary,sunflower,NA,yes,Please label the pictures below.,NA,NA,30,NA,NA,NA,warmup/dandelion.jpg,flowers,graduated_college,NA,english,male,NA,flowers,NA,3,1574449275003,1,This is a,1,These are both,sunflower,NA,warmup2,NA
847,NA,dandelion,NA,Fri Nov 22 2019 13:01:15 GMT-0600 (Central Standard Time),NA,24,warmup/sunflower_warmup.png,dandelion,This is a,none that i saw,2,flowers,mary,sunflower,NA,yes,Please label the pictures below.,NA,NA,30,NA,NA,NA,warmup/dandelion.jpg,flowers,graduated_college,NA,english,male,NA,flowers,NA,3,1574449275003,2,This is a,1,These are both,sunflower,NA,warmup2,NA
847,What do you think your friend meant?,NA,It is small  relative to other,Fri Nov 22 2019 13:01:15 GMT-0600 (Central Standard Time),ref-utility/bonsais-5-6.png,24,NA,NA,NA,none that i saw,2,trees,mary,NA,1,yes,"Your friend runs far ahead of you, and you see him in the distance:",prenominal,warmup/bonsai.png,30,trees,NA,1,NA,NA,graduated_college,small,english,male,NA,NA,You and your friend see the following:,1,1574449275003,NA,NA,1,NA,NA,congr,custom_main_text2,Your friend says: <br/><b>That's a small bonsai.</b>
847,What do you think your friend meant?,NA,It is small  relative to other,Fri Nov 22 2019 13:01:15 GMT-0600 (Central Standard Time),ref-utility/dandelions-5-6.png,24,NA,NA,NA,none that i saw,2,flowers,mary,NA,1,yes,"Your friend runs far ahead of you, and you see him in the distance:",prenominal,warmup/dandelion.png,30,dandelions,NA,1,NA,NA,graduated_college,small,english,male,NA,NA,You and your friend see the following:,2,1574449275003,NA,NA,1,NA,NA,congr,custom_main_text2,Your friend says: <br/><b>That's a small dandelion.</b>
847,What do you think your friend meant?,NA,It is small  relative to other,Fri Nov 22 2019 13:01:15 GMT-0600 (Central Standard Time),ref-utility/pugs-5-6.png,24,NA,NA,NA,none that i saw,2,dogs2,mary,NA,1,yes,"Your friend runs far ahead of you, and you see him in the distance:",prenominal,warmup/pug.png,30,dogs,NA,1,NA,NA,graduated_college,small,english,male,NA,NA,You and your friend see the following:,3,1574449275003,NA,NA,1,NA,NA,congr,custom_main_text2,Your friend says: <br/><b>That's a small pug.</b>
846,NA,dandelion,NA,Fri Nov 22 2019 13:56:19 GMT-0500 (Eastern Standard Time),NA,24,warmup/sunflower_warmup.png,dandelion,This is a,no,NA,flowers,jessica,sunflower,NA,NA,Please label the pictures below.,NA,NA,NA,NA,thank you,NA,warmup/dandelion.jpg,flower,NA,NA,NA,NA,NA,flowers,NA,1,1574448979858,1,This is a,2,These are both,sunflower,NA,warmup1,NA
846,NA,flower,NA,Fri Nov 22 2019 13:56:19 GMT-0500 (Eastern Standard Time),NA,24,warmup/sunflower_warmup.png,dandelion,This is a,no,NA,flowers,jessica,sunflower,NA,NA,Please label the pictures below.,NA,NA,NA,NA,thank you,NA,warmup/dandelion.jpg,flower,NA,NA,NA,NA,NA,flowers,NA,1,1574448979858,2,This is a,2,These are both,flower,NA,warmup1,NA
846,NA,dandelion,NA,Fri Nov 22 2019 13:56:19 GMT-0500 (Eastern Standard Time),NA,24,warmup/sunflower_warmup.png,dandelion,This is a,no,NA,flowers,jessica,sunflower,NA,NA,Please label the pictures below.,NA,NA,NA,NA,thank you,NA,warmup/dandelion.jpg,flower,NA,NA,NA,NA,NA,flowers,NA,1,1574448979858,3,This is a,2,These are both,sunflower,NA,warmup1,NA
846,NA,dandelion,NA,Fri Nov 22 2019 13:56:19 GMT-0500 (Eastern Standard Time),NA,24,warmup/sunflower_warmup.png,dandelion,This is a,no,NA,flowers,jessica,sunflower,NA,NA,Please label the pictures below.,NA,NA,NA,NA,thank you,NA,warmup/dandelion.jpg,flowers,NA,NA,NA,NA,NA,flowers,NA,1,1574448979858,4,This is a,2,These are both,sunflower,NA,warmup1,NA
846,NA,chiowoa,NA,Fri Nov 22 2019 13:56:19 GMT-0500 (Eastern Standard Time),NA,24,warmup/doberman_warmup.png,chihuahua,This is a,no,NA,dogs,jessica,doberman,NA,NA,Please label the pictures below.,NA,NA,NA,NA,thank you,NA,warmup/chihuahua.jpg,dogs,NA,NA,NA,NA,NA,dogs,NA,2,1574448979858,1,This is a,2,These are both,dat,NA,warmup1,NA
846,NA,chihuahua,NA,Fri Nov 22 2019 13:56:19 GMT-0500 (Eastern Standard Time),NA,24,warmup/doberman_warmup.png,chihuahua,This is a,no,NA,dogs,jessica,doberman,NA,NA,Please label the pictures below.,NA,NA,NA,NA,thank you,NA,warmup/chihuahua.jpg,dogs,NA,NA,NA,NA,NA,dogs,NA,2,1574448979858,2,This is a,2,These are both,doberman,NA,warmup1,NA
846,NA,hummingbird,NA,Fri Nov 22 2019 13:56:19 GMT-0500 (Eastern Standard Time),NA,24,warmup/eagle.jpg,hummingbird,This is a,no,NA,birds,jessica,eagle,NA,NA,Please label the pictures below.,NA,NA,NA,NA,thank you,NA,warmup/colibri.jpg,birds,NA,NA,NA,NA,NA,birds,NA,3,1574448979858,1,This is an,2,These are both,eagle,NA,warmup1,NA
846,What do you think your friend meant?,NA,It is small  relative to other,Fri Nov 22 2019 13:56:19 GMT-0500 (Eastern Standard Time),ref-utility/hummingbirds-5-6.png,24,NA,NA,NA,no,NA,birds,jessica,NA,1,NA,"Your friend runs far ahead of you, and you see him in the distance:",prenominal,warmup/hummingbird.png,NA,birds,thank you,1,NA,NA,NA,small,NA,NA,NA,NA,You and your friend see the following:,1,1574448979858,NA,NA,2,NA,NA,congr,custom_main_text1,Your friend says: <br/><b>That's a small hummingbird.</b>
846,What do you think your friend meant?,NA,It is small  relative to other,Fri Nov 22 2019 13:56:19 GMT-0500 (Eastern Standard Time),ref-utility/chihuahuas-5-6.png,24,NA,NA,NA,no,NA,dogs1,jessica,NA,1,NA,"Your friend runs far ahead of you, and you see him in the distance:",prenominal,warmup/chihuahua.png,NA,dogs,thank you,1,NA,NA,NA,small,NA,NA,NA,NA,You and your friend see the following:,2,1574448979858,NA,NA,2,NA,NA,congr,custom_main_text1,Your friend says: <br/><b>That's a small chihuahua.</b>
846,What do you think your friend meant?,NA,It is small  relative to other,Fri Nov 22 2019 13:56:19 GMT-0500 (Eastern Standard Time),ref-utility/dandelions-5-6.png,24,NA,NA,NA,no,NA,flowers,jessica,NA,1,NA,"Your friend runs far ahead of you, and you see him in the distance:",prenominal,warmup/dandelion.png,NA,weeds,thank you,1,NA,NA,NA,small,NA,NA,NA,NA,You and your friend see the following:,3,1574448979858,NA,NA,2,NA,NA,congr,custom_main_text1,Your friend says: <br/><b>That's a small dandelion.</b>
846,NA,shark,NA,Fri Nov 22 2019 13:56:19 GMT-0500 (Eastern Standard Time),NA,24,warmup/goldfish_warmup.png,swordfish,This is a,no,NA,fish,jessica,goldfish,NA,NA,Please label the pictures below.,NA,NA,NA,NA,thank you,NA,warmup/swordfish.jpg,fish,NA,NA,NA,NA,NA,fish,NA,1,1574448979858,1,This is a,2,These are both,goldfish,NA,warmup2,NA
846,NA,shark,NA,Fri Nov 22 2019 13:56:19 GMT-0500 (Eastern Standard Time),NA,24,warmup/goldfish_warmup.png,swordfish,This is a,no,NA,fish,jessica,goldfish,NA,NA,Please label the pictures below.,NA,NA,NA,NA,thank you,NA,warmup/swordfish.jpg,fish,NA,NA,NA,NA,NA,fish,NA,1,1574448979858,2,This is a,2,These are both,goldfish,NA,warmup2,NA
846,NA,shark,NA,Fri Nov 22 2019 13:56:19 GMT-0500 (Eastern Standard Time),NA,24,warmup/goldfish_warmup.png,swordfish,This is a,no,NA,fish,jessica,goldfish,NA,NA,Please label the pictures below.,NA,NA,NA,NA,thank you,NA,warmup/swordfish.jpg,fish,NA,NA,NA,NA,NA,fish,NA,1,1574448979858,3,This is a,2,These are both,goldfish,NA,warmup2,NA
846,NA,swordfish,NA,Fri Nov 22 2019 13:56:19 GMT-0500 (Eastern Standard Time),NA,24,warmup/goldfish_warmup.png,swordfish,This is a,no,NA,fish,jessica,goldfish,NA,NA,Please label the pictures below.,NA,NA,NA,NA,thank you,NA,warmup/swordfish.jpg,fish,NA,NA,NA,NA,NA,fish,NA,1,1574448979858,4,This is a,2,These are both,goldfish,NA,warmup2,NA
846,NA,pug,NA,Fri Nov 22 2019 13:56:19 GMT-0500 (Eastern Standard Time),NA,24,warmup/great-dane.jpg,pug,This is a,no,NA,dogs,jessica,great dane,NA,NA,Please label the pictures below.,NA,NA,NA,NA,thank you,NA,warmup/pug.jpg,dogs,NA,NA,NA,NA,NA,dogs,NA,2,1574448979858,1,This is a,2,These are both,laborador,NA,warmup2,NA
846,NA,pug,NA,Fri Nov 22 2019 13:56:19 GMT-0500 (Eastern Standard Time),NA,24,warmup/great-dane.jpg,pug,This is a,no,NA,dogs,jessica,great dane,NA,NA,Please label the pictures below.,NA,NA,NA,NA,thank you,NA,warmup/pug.jpg,dogs,NA,NA,NA,NA,NA,dogs,NA,2,1574448979858,2,This is a,2,These are both,great dane,NA,warmup2,NA
846,NA,oak tree,NA,Fri Nov 22 2019 13:56:19 GMT-0500 (Eastern Standard Time),NA,24,warmup/bonsai.jpg,redwood or sequoia (choose one),This is a,no,NA,trees,jessica,bonsai,NA,NA,Please label the pictures below.,NA,NA,NA,NA,thank you,NA,warmup/sequoia.png,tree,NA,NA,NA,NA,NA,trees,NA,3,1574448979858,1,This is a,2,These are both,decorative tree,NA,warmup2,NA
846,NA,redwood,NA,Fri Nov 22 2019 13:56:19 GMT-0500 (Eastern Standard Time),NA,24,warmup/bonsai.jpg,redwood or sequoia (choose one),This is a,no,NA,trees,jessica,bonsai,NA,NA,Please label the pictures below.,NA,NA,NA,NA,thank you,NA,warmup/sequoia.png,trees,NA,NA,NA,NA,NA,trees,NA,3,1574448979858,2,This is a,2,These are both,bonsai,NA,warmup2,NA
846,What do you think your friend meant?,NA,It is big  relative to other,Fri Nov 22 2019 13:56:19 GMT-0500 (Eastern Standard Time),ref-utility/great-danes-5-6.png,24,NA,NA,NA,no,NA,dogs2,jessica,NA,1,NA,"Your friend runs far ahead of you, and you see him in the distance:",prenominal,warmup/great-dane.png,NA,dogs,thank you,1,NA,NA,NA,big,NA,NA,NA,NA,You and your friend see the following:,1,1574448979858,NA,NA,2,NA,NA,congr,custom_main_text2,Your friend says: <br/><b>That's a big great dane.</b>
846,What do you think your friend meant?,NA,It is big  relative to other,Fri Nov 22 2019 13:56:19 GMT-0500 (Eastern Standard Time),ref-utility/redwoods-5-6.png,24,NA,NA,NA,no,NA,trees,jessica,NA,1,NA,"Your friend runs far ahead of you, and you see him in the distance:",prenominal,warmup/redwood.png,NA,trees,thank you,1,NA,NA,NA,big,NA,NA,NA,NA,You and your friend see the following:,2,1574448979858,NA,NA,2,NA,NA,congr,custom_main_text2,Your friend says: <br/><b>That's a big redwood.</b>
846,What do you think your friend meant?,NA,It is big  relative to other,Fri Nov 22 2019 13:56:19 GMT-0500 (Eastern Standard Time),ref-utility/swordfish-5-6.png,24,NA,NA,NA,no,NA,fish,jessica,NA,1,NA,"Your friend runs far ahead of you, and you see him in the distance:",prenominal,warmup/swordfish.png,NA,fish,thank you,1,NA,NA,NA,big,NA,NA,NA,NA,You and your friend see the following:,3,1574448979858,NA,NA,2,NA,NA,congr,custom_main_text2,Your friend says: <br/><b>That's a big swordfish.</b>
845,NA,hummingbird,NA,Fri Nov 22 2019 12:56:01 GMT-0600 (Central Standard Time),NA,24,warmup/eagle.jpg,hummingbird,This is a,None,2,birds,jennifer,eagle,NA,NA,Please label the pictures below.,NA,NA,41,NA,NA,NA,warmup/colibri.jpg,birds,graduated_college,NA,English,female,NA,birds,NA,1,1574448961995,1,This is an,1,These are both,eagle,NA,warmup1,NA
845,NA,daffodil,NA,Fri Nov 22 2019 12:56:01 GMT-0600 (Central Standard Time),NA,24,warmup/sunflower_warmup.png,dandelion,This is a,None,2,flowers,jennifer,sunflower,NA,NA,Please label the pictures below.,NA,NA,41,NA,NA,NA,warmup/dandelion.jpg,flowers,graduated_college,NA,English,female,NA,flowers,NA,2,1574448961995,1,This is a,1,These are both,sunflower,NA,warmup1,NA
845,NA,dandelion,NA,Fri Nov 22 2019 12:56:01 GMT-0600 (Central Standard Time),NA,24,warmup/sunflower_warmup.png,dandelion,This is a,None,2,flowers,jennifer,sunflower,NA,NA,Please label the pictures below.,NA,NA,41,NA,NA,NA,warmup/dandelion.jpg,flowers,graduated_college,NA,English,female,NA,flowers,NA,2,1574448961995,2,This is a,1,These are both,sunflower,NA,warmup1,NA
845,NA,red oak,NA,Fri Nov 22 2019 12:56:01 GMT-0600 (Central Standard Time),NA,24,warmup/bonsai.jpg,redwood or sequoia (choose one),This is a,None,2,trees,jennifer,bonsai,NA,NA,Please label the pictures below.,NA,NA,41,NA,NA,NA,warmup/sequoia.png,trees,graduated_college,NA,English,female,NA,trees,NA,3,1574448961995,1,This is a,1,These are both,bonsai,NA,warmup1,NA
845,NA,redoak,NA,Fri Nov 22 2019 12:56:01 GMT-0600 (Central Standard Time),NA,24,warmup/bonsai.jpg,redwood or sequoia (choose one),This is a,None,2,trees,jennifer,bonsai,NA,NA,Please label the pictures below.,NA,NA,41,NA,NA,NA,warmup/sequoia.png,trees,graduated_college,NA,English,female,NA,trees,NA,3,1574448961995,2,This is a,1,These are both,bonsai,NA,warmup1,NA
845,NA,oak,NA,Fri Nov 22 2019 12:56:01 GMT-0600 (Central Standard Time),NA,24,warmup/bonsai.jpg,redwood or sequoia (choose one),This is a,None,2,trees,jennifer,bonsai,NA,NA,Please label the pictures below.,NA,NA,41,NA,NA,NA,warmup/sequoia.png,trees,graduated_college,NA,English,female,NA,trees,NA,3,1574448961995,3,This is a,1,These are both,bonsai,NA,warmup1,NA
845,NA,oak,NA,Fri Nov 22 2019 12:56:01 GMT-0600 (Central Standard Time),NA,24,warmup/bonsai.jpg,redwood or sequoia (choose one),This is a,None,2,trees,jennifer,bonsai,NA,NA,Please label the pictures below.,NA,NA,41,NA,NA,NA,warmup/sequoia.png,trees,graduated_college,NA,English,female,NA,trees,NA,3,1574448961995,4,This is a,1,These are both,bonsai,NA,warmup1,NA
845,NA,red oak tree,NA,Fri Nov 22 2019 12:56:01 GMT-0600 (Central Standard Time),NA,24,warmup/bonsai.jpg,redwood or sequoia (choose one),This is a,None,2,trees,jennifer,bonsai,NA,NA,Please label the pictures below.,NA,NA,41,NA,NA,NA,warmup/sequoia.png,trees,graduated_college,NA,English,female,NA,trees,NA,3,1574448961995,5,This is a,1,These are both,bonsai tree,NA,warmup1,NA
845,NA,redwood,NA,Fri Nov 22 2019 12:56:01 GMT-0600 (Central Standard Time),NA,24,warmup/bonsai.jpg,redwood or sequoia (choose one),This is a,None,2,trees,jennifer,bonsai,NA,NA,Please label the pictures below.,NA,NA,41,NA,NA,NA,warmup/sequoia.png,trees,graduated_college,NA,English,female,NA,trees,NA,3,1574448961995,6,This is a,1,These are both,bonsai,NA,warmup1,NA
845,What do you think your friend meant?,NA,It is small  relative to other,Fri Nov 22 2019 12:56:01 GMT-0600 (Central Standard Time),ref-utility/bonsais-5-6.png,24,NA,NA,NA,None,2,trees,jennifer,NA,1,NA,"Your friend runs far ahead of you, and you see him in the distance:",prenominal,warmup/bonsai.png,41,trees,NA,1,NA,NA,graduated_college,small,English,female,NA,NA,You and your friend see the following:,1,1574448961995,NA,NA,1,NA,NA,congr,custom_main_text1,Your friend says: <br/><b>That's a small bonsai.</b>
845,What do you think your friend meant?,NA,It is small  relative to other,Fri Nov 22 2019 12:56:01 GMT-0600 (Central Standard Time),ref-utility/dandelions-5-6.png,24,NA,NA,NA,None,2,flowers,jennifer,NA,1,NA,"Your friend runs far ahead of you, and you see him in the distance:",prenominal,warmup/dandelion.png,41,flowers,NA,1,NA,NA,graduated_college,small,English,female,NA,NA,You and your friend see the following:,2,1574448961995,NA,NA,1,NA,NA,congr,custom_main_text1,Your friend says: <br/><b>That's a small dandelion.</b>
845,What do you think your friend meant?,NA,It is small  relative to other,Fri Nov 22 2019 12:56:01 GMT-0600 (Central Standard Time),ref-utility/hummingbirds-5-6.png,24,NA,NA,NA,None,2,birds,jennifer,NA,1,NA,"Your friend runs far ahead of you, and you see him in the distance:",prenominal,warmup/hummingbird.png,41,hummingbirds,NA,1,NA,NA,graduated_college,small,English,female,NA,NA,You and your friend see the following:,3,1574448961995,NA,NA,1,NA,NA,congr,custom_main_text1,Your friend says: <br/><b>That's a small hummingbird.</b>
845,NA,pug,NA,Fri Nov 22 2019 12:56:01 GMT-0600 (Central Standard Time),NA,24,warmup/great-dane.jpg,pug,This is a,None,2,dogs,jennifer,great dane,NA,NA,Please label the pictures below.,NA,NA,41,NA,NA,NA,warmup/pug.jpg,dogs,graduated_college,NA,English,female,NA,dogs,NA,1,1574448961995,1,This is a,1,These are both,great dane,NA,warmup2,NA
845,NA,marlin,NA,Fri Nov 22 2019 12:56:01 GMT-0600 (Central Standard Time),NA,24,warmup/goldfish_warmup.png,swordfish,This is a,None,2,fish,jennifer,goldfish,NA,NA,Please label the pictures below.,NA,NA,41,NA,NA,NA,warmup/swordfish.jpg,fish,graduated_college,NA,English,female,NA,fish,NA,2,1574448961995,1,This is a,1,These are both,goldfish,NA,warmup2,NA
845,NA,swordfish,NA,Fri Nov 22 2019 12:56:01 GMT-0600 (Central Standard Time),NA,24,warmup/goldfish_warmup.png,swordfish,This is a,None,2,fish,jennifer,goldfish,NA,NA,Please label the pictures below.,NA,NA,41,NA,NA,NA,warmup/swordfish.jpg,fish,graduated_college,NA,English,female,NA,fish,NA,2,1574448961995,2,This is a,1,These are both,goldfish,NA,warmup2,NA
845,NA,chihuahua,NA,Fri Nov 22 2019 12:56:01 GMT-0600 (Central Standard Time),NA,24,warmup/doberman_warmup.png,chihuahua,This is a,None,2,dogs,jennifer,doberman,NA,NA,Please label the pictures below.,NA,NA,41,NA,NA,NA,warmup/chihuahua.jpg,dogs,graduated_college,NA,English,female,NA,dogs,NA,3,1574448961995,1,This is a,1,These are both,doberman,NA,warmup2,NA
845,What do you think your friend meant?,NA,It is big  relative to other,Fri Nov 22 2019 12:56:01 GMT-0600 (Central Standard Time),ref-utility/doberman-5-6.png,24,NA,NA,NA,None,2,dogs1,jennifer,NA,1,NA,"Your friend runs far ahead of you, and you see him in the distance:",prenominal,warmup/doberman.png,41,dobermans,NA,1,NA,NA,graduated_college,big,English,female,NA,NA,You and your friend see the following:,1,1574448961995,NA,NA,1,NA,NA,congr,custom_main_text2,Your friend says: <br/><b>That's a big doberman.</b>
845,What do you think your friend meant?,NA,It is big  relative to other,Fri Nov 22 2019 12:56:01 GMT-0600 (Central Standard Time),ref-utility/great-danes-5-6.png,24,NA,NA,NA,None,2,dogs2,jennifer,NA,1,NA,"Your friend runs far ahead of you, and you see him in the distance:",prenominal,warmup/great-dane.png,41,great danes,NA,1,NA,NA,graduated_college,big,English,female,NA,NA,You and your friend see the following:,2,1574448961995,NA,NA,1,NA,NA,congr,custom_main_text2,Your friend says: <br/><b>That's a big great dane.</b>
845,What do you think your friend meant?,NA,It is big  relative to other,Fri Nov 22 2019 12:56:01 GMT-0600 (Central Standard Time),ref-utility/swordfish-5-6.png,24,NA,NA,NA,None,2,fish,jennifer,NA,1,NA,"Your friend runs far ahead of you, and you see him in the distance:",prenominal,warmup/swordfish.png,41,swordfish,NA,1,NA,NA,graduated_college,big,English,female,NA,NA,You and your friend see the following:,3,1574448961995,NA,NA,1,NA,NA,congr,custom_main_text2,Your friend says: <br/><b>That's a big swordfish.</b>
844,NA,dandelion,NA,Fri Nov 22 2019 12:58:06 GMT-0600 (Central Standard Time),NA,24,warmup/sunflower_warmup.png,dandelion,This is a,no,2,flowers,linda,sunflower,NA,yes,Please label the pictures below.,NA,NA,47,NA,NA,NA,warmup/dandelion.jpg,flowers,graduated_college,NA,english,female,NA,flowers,NA,1,1574449086543,1,This is a,1,These are both,sunflower,NA,warmup1,NA
844,NA,shark,NA,Fri Nov 22 2019 12:58:06 GMT-0600 (Central Standard Time),NA,24,warmup/goldfish_warmup.png,swordfish,This is a,no,2,fish,linda,goldfish,NA,yes,Please label the pictures below.,NA,NA,47,NA,NA,NA,warmup/swordfish.jpg,fish,graduated_college,NA,english,female,NA,fish,NA,2,1574449086543,1,This is a,1,These are both,goldfish,NA,warmup1,NA
844,NA,swordfish,NA,Fri Nov 22 2019 12:58:06 GMT-0600 (Central Standard Time),NA,24,warmup/goldfish_warmup.png,swordfish,This is a,no,2,fish,linda,goldfish,NA,yes,Please label the pictures below.,NA,NA,47,NA,NA,NA,warmup/swordfish.jpg,fish,graduated_college,NA,english,female,NA,fish,NA,2,1574449086543,2,This is a,1,These are both,goldfish,NA,warmup1,NA
844,NA,chihuahua,NA,Fri Nov 22 2019 12:58:06 GMT-0600 (Central Standard Time),NA,24,warmup/doberman_warmup.png,chihuahua,This is a,no,2,dogs,linda,doberman,NA,yes,Please label the pictures below.,NA,NA,47,NA,NA,NA,warmup/chihuahua.jpg,dogs,graduated_college,NA,english,female,NA,dogs,NA,3,1574449086543,1,This is a,1,These are both,doberman,NA,warmup1,NA
844,What do you think your friend meant?,NA,It is big  relative to other,Fri Nov 22 2019 12:58:06 GMT-0600 (Central Standard Time),ref-utility/swordfish-5-6.png,24,NA,NA,NA,no,2,fish,linda,NA,1,yes,"Your friend runs far ahead of you, and you see him in the distance:",prenominal,warmup/swordfish.png,47,fish,NA,1,NA,NA,graduated_college,big,english,female,NA,NA,You and your friend see the following:,1,1574449086543,NA,NA,1,NA,NA,congr,custom_main_text1,Your friend says: <br/><b>That's a big swordfish.</b>
844,What do you think your friend meant?,NA,It is big  relative to other,Fri Nov 22 2019 12:58:06 GMT-0600 (Central Standard Time),ref-utility/doberman-5-6.png,24,NA,NA,NA,no,2,dogs1,linda,NA,1,yes,"Your friend runs far ahead of you, and you see him in the distance:",prenominal,warmup/doberman.png,47,doberman,NA,1,NA,NA,graduated_college,big,english,female,NA,NA,You and your friend see the following:,2,1574449086543,NA,NA,1,NA,NA,congr,custom_main_text1,Your friend says: <br/><b>That's a big doberman.</b>
844,What do you think your friend meant?,NA,It is small  relative to other,Fri Nov 22 2019 12:58:06 GMT-0600 (Central Standard Time),ref-utility/dandelions-5-6.png,24,NA,NA,NA,no,2,flowers,linda,NA,1,yes,"Your friend runs far ahead of you, and you see him in the distance:",prenominal,warmup/dandelion.png,47,flowers,NA,1,NA,NA,graduated_college,small,english,female,NA,NA,You and your friend see the following:,3,1574449086543,NA,NA,1,NA,NA,congr,custom_main_text1,Your friend says: <br/><b>That's a small dandelion.</b>
844,NA,hummingbird,NA,Fri Nov 22 2019 12:58:06 GMT-0600 (Central Standard Time),NA,24,warmup/eagle.jpg,hummingbird,This is a,no,2,birds,linda,eagle,NA,yes,Please label the pictures below.,NA,NA,47,NA,NA,NA,warmup/colibri.jpg,birds,graduated_college,NA,english,female,NA,birds,NA,1,1574449086543,1,This is an,1,These are both,eagle,NA,warmup2,NA
844,NA,redwood,NA,Fri Nov 22 2019 12:58:06 GMT-0600 (Central Standard Time),NA,24,warmup/bonsai.jpg,redwood or sequoia (choose one),This is a,no,2,trees,linda,bonsai,NA,yes,Please label the pictures below.,NA,NA,47,NA,NA,NA,warmup/sequoia.png,trees,graduated_college,NA,english,female,NA,trees,NA,2,1574449086543,1,This is a,1,These are both,joshua tree,NA,warmup2,NA
844,NA,redwood,NA,Fri Nov 22 2019 12:58:06 GMT-0600 (Central Standard Time),NA,24,warmup/bonsai.jpg,redwood or sequoia (choose one),This is a,no,2,trees,linda,bonsai,NA,yes,Please label the pictures below.,NA,NA,47,NA,NA,NA,warmup/sequoia.png,trees,graduated_college,NA,english,female,NA,trees,NA,2,1574449086543,2,This is a,1,These are both,bonsai,NA,warmup2,NA
844,NA,pug,NA,Fri Nov 22 2019 12:58:06 GMT-0600 (Central Standard Time),NA,24,warmup/great-dane.jpg,pug,This is a,no,2,dogs,linda,great dane,NA,yes,Please label the pictures below.,NA,NA,47,NA,NA,NA,warmup/pug.jpg,dogs,graduated_college,NA,english,female,NA,dogs,NA,3,1574449086543,1,This is a,1,These are both,great dane,NA,warmup2,NA
844,What do you think your friend meant?,NA,It is big  relative to other,Fri Nov 22 2019 12:58:06 GMT-0600 (Central Standard Time),ref-utility/great-danes-5-6.png,24,NA,NA,NA,no,2,dogs2,linda,NA,1,yes,"Your friend runs far ahead of you, and you see him in the distance:",prenominal,warmup/great-dane.png,47,dogs,NA,1,NA,NA,graduated_college,big,english,female,NA,NA,You and your friend see the following:,1,1574449086543,NA,NA,1,NA,NA,congr,custom_main_text2,Your friend says: <br/><b>That's a big great dane.</b>
844,What do you think your friend meant?,NA,It is small  relative to other,Fri Nov 22 2019 12:58:06 GMT-0600 (Central Standard Time),ref-utility/hummingbirds-5-6.png,24,NA,NA,NA,no,2,birds,linda,NA,1,yes,"Your friend runs far ahead of you, and you see him in the distance:",prenominal,warmup/hummingbird.png,47,hummingbirds,NA,1,NA,NA,graduated_college,small,english,female,NA,NA,You and your friend see the following:,2,1574449086543,NA,NA,1,NA,NA,congr,custom_main_text2,Your friend says: <br/><b>That's a small hummingbird.</b>
844,What do you think your friend meant?,NA,It is small  relative to other,Fri Nov 22 2019 12:58:06 GMT-0600 (Central Standard Time),ref-utility/bonsais-5-6.png,24,NA,NA,NA,no,2,trees,linda,NA,1,yes,"Your friend runs far ahead of you, and you see him in the distance:",prenominal,warmup/bonsai.png,47,bonsai,NA,1,NA,NA,graduated_college,small,english,female,NA,NA,You and your friend see the following:,3,1574449086543,NA,NA,1,NA,NA,congr,custom_main_text2,Your friend says: <br/><b>That's a small bonsai.</b>
843,NA,weed,NA,Fri Nov 22 2019 13:55:08 GMT-0500 (Eastern Standard Time),NA,24,warmup/sunflower_warmup.png,dandelion,This is a,none,0,flowers,Margaret,sunflower,NA,NA,Please label the pictures below.,NA,NA,NA,NA,NA,NA,warmup/dandelion.jpg,flowers,some_college,NA,english,NA,NA,flowers,NA,1,1574448908304,1,This is a,1.5,These are both,sunflower,NA,warmup1,NA
843,NA,dandelion,NA,Fri Nov 22 2019 13:55:08 GMT-0500 (Eastern Standard Time),NA,24,warmup/sunflower_warmup.png,dandelion,This is a,none,0,flowers,Margaret,sunflower,NA,NA,Please label the pictures below.,NA,NA,NA,NA,NA,NA,warmup/dandelion.jpg,flowers,some_college,NA,english,NA,NA,flowers,NA,1,1574448908304,2,This is a,1.5,These are both,sunflower,NA,warmup1,NA
843,NA,humming bird,NA,Fri Nov 22 2019 13:55:08 GMT-0500 (Eastern Standard Time),NA,24,warmup/eagle.jpg,hummingbird,This is a,none,0,birds,Margaret,eagle,NA,NA,Please label the pictures below.,NA,NA,NA,NA,NA,NA,warmup/colibri.jpg,birds,some_college,NA,english,NA,NA,birds,NA,2,1574448908304,1,This is an,1.5,These are both,eagel,NA,warmup1,NA
843,NA,hummingbird,NA,Fri Nov 22 2019 13:55:08 GMT-0500 (Eastern Standard Time),NA,24,warmup/eagle.jpg,hummingbird,This is a,none,0,birds,Margaret,eagle,NA,NA,Please label the pictures below.,NA,NA,NA,NA,NA,NA,warmup/colibri.jpg,birds,some_college,NA,english,NA,NA,birds,NA,2,1574448908304,2,This is an,1.5,These are both,eagel,NA,warmup1,NA
843,NA,hummingbird,NA,Fri Nov 22 2019 13:55:08 GMT-0500 (Eastern Standard Time),NA,24,warmup/eagle.jpg,hummingbird,This is a,none,0,birds,Margaret,eagle,NA,NA,Please label the pictures below.,NA,NA,NA,NA,NA,NA,warmup/colibri.jpg,birds,some_college,NA,english,NA,NA,birds,NA,2,1574448908304,3,This is an,1.5,These are both,eagel,NA,warmup1,NA
843,NA,hummingbird,NA,Fri Nov 22 2019 13:55:08 GMT-0500 (Eastern Standard Time),NA,24,warmup/eagle.jpg,hummingbird,This is a,none,0,birds,Margaret,eagle,NA,NA,Please label the pictures below.,NA,NA,NA,NA,NA,NA,warmup/colibri.jpg,birds,some_college,NA,english,NA,NA,birds,NA,2,1574448908304,4,This is an,1.5,These are both,eagel,NA,warmup1,NA
843,NA,hummingbird,NA,Fri Nov 22 2019 13:55:08 GMT-0500 (Eastern Standard Time),NA,24,warmup/eagle.jpg,hummingbird,This is a,none,0,birds,Margaret,eagle,NA,NA,Please label the pictures below.,NA,NA,NA,NA,NA,NA,warmup/colibri.jpg,birds,some_college,NA,english,NA,NA,birds,NA,2,1574448908304,5,This is an,1.5,These are both,eagle,NA,warmup1,NA
843,NA,cihaua,NA,Fri Nov 22 2019 13:55:08 GMT-0500 (Eastern Standard Time),NA,24,warmup/doberman_warmup.png,chihuahua,This is a,none,0,dogs,Margaret,doberman,NA,NA,Please label the pictures below.,NA,NA,NA,NA,NA,NA,warmup/chihuahua.jpg,dogs,some_college,NA,english,NA,NA,dogs,NA,3,1574448908304,1,This is a,1.5,These are both,dobermind,NA,warmup1,NA
843,NA,chihuahua,NA,Fri Nov 22 2019 13:55:08 GMT-0500 (Eastern Standard Time),NA,24,warmup/doberman_warmup.png,chihuahua,This is a,none,0,dogs,Margaret,doberman,NA,NA,Please label the pictures below.,NA,NA,NA,NA,NA,NA,warmup/chihuahua.jpg,dogs,some_college,NA,english,NA,NA,dogs,NA,3,1574448908304,2,This is a,1.5,These are both,doberman,NA,warmup1,NA
843,What do you think your friend meant?,NA,It is small  relative to other,Fri Nov 22 2019 13:55:08 GMT-0500 (Eastern Standard Time),ref-utility/hummingbirds-5-6.png,24,NA,NA,NA,none,0,birds,Margaret,NA,1,NA,"Your friend runs far ahead of you, and you see him in the distance:",prenominal,warmup/hummingbird.png,NA,birds,NA,1,NA,NA,some_college,small,english,NA,NA,NA,You and your friend see the following:,1,1574448908304,NA,NA,1.5,NA,NA,congr,custom_main_text1,Your friend says: <br/><b>That's a small hummingbird.</b>
843,What do you think your friend meant?,NA,It is small  relative to other,Fri Nov 22 2019 13:55:08 GMT-0500 (Eastern Standard Time),ref-utility/dandelions-5-6.png,24,NA,NA,NA,none,0,flowers,Margaret,NA,1,NA,"Your friend runs far ahead of you, and you see him in the distance:",prenominal,warmup/dandelion.png,NA,flowers,NA,1,NA,NA,some_college,small,english,NA,NA,NA,You and your friend see the following:,2,1574448908304,NA,NA,1.5,NA,NA,congr,custom_main_text1,Your friend says: <br/><b>That's a small dandelion.</b>
843,What do you think your friend meant?,NA,It is big  relative to other,Fri Nov 22 2019 13:55:08 GMT-0500 (Eastern Standard Time),ref-utility/doberman-5-6.png,24,NA,NA,NA,none,0,dogs1,Margaret,NA,1,NA,"Your friend runs far ahead of you, and you see him in the distance:",prenominal,warmup/doberman.png,NA,doberman,NA,1,NA,NA,some_college,big,english,NA,NA,NA,You and your friend see the following:,3,1574448908304,NA,NA,1.5,NA,NA,congr,custom_main_text1,Your friend says: <br/><b>That's a big doberman.</b>
843,NA,sacoia,NA,Fri Nov 22 2019 13:55:08 GMT-0500 (Eastern Standard Time),NA,24,warmup/bonsai.jpg,redwood or sequoia (choose one),This is a,none,0,trees,Margaret,bonsai,NA,NA,Please label the pictures below.,NA,NA,NA,NA,NA,NA,warmup/sequoia.png,trees,some_college,NA,english,NA,NA,trees,NA,1,1574448908304,1,This is a,1.5,These are both,bonzi,NA,warmup2,NA
843,NA,sequoia,NA,Fri Nov 22 2019 13:55:08 GMT-0500 (Eastern Standard Time),NA,24,warmup/bonsai.jpg,redwood or sequoia (choose one),This is a,none,0,trees,Margaret,bonsai,NA,NA,Please label the pictures below.,NA,NA,NA,NA,NA,NA,warmup/sequoia.png,trees,some_college,NA,english,NA,NA,trees,NA,1,1574448908304,2,This is a,1.5,These are both,bonzi,NA,warmup2,NA
843,NA,sequoia,NA,Fri Nov 22 2019 13:55:08 GMT-0500 (Eastern Standard Time),NA,24,warmup/bonsai.jpg,redwood or sequoia (choose one),This is a,none,0,trees,Margaret,bonsai,NA,NA,Please label the pictures below.,NA,NA,NA,NA,NA,NA,warmup/sequoia.png,trees,some_college,NA,english,NA,NA,trees,NA,1,1574448908304,3,This is a,1.5,These are both,bonzi,NA,warmup2,NA
843,NA,sequoia,NA,Fri Nov 22 2019 13:55:08 GMT-0500 (Eastern Standard Time),NA,24,warmup/bonsai.jpg,redwood or sequoia (choose one),This is a,none,0,trees,Margaret,bonsai,NA,NA,Please label the pictures below.,NA,NA,NA,NA,NA,NA,warmup/sequoia.png,trees,some_college,NA,english,NA,NA,trees,NA,1,1574448908304,4,This is a,1.5,These are both,bonsai,NA,warmup2,NA
843,NA,swordfish,NA,Fri Nov 22 2019 13:55:08 GMT-0500 (Eastern Standard Time),NA,24,warmup/goldfish_warmup.png,swordfish,This is a,none,0,fish,Margaret,goldfish,NA,NA,Please label the pictures below.,NA,NA,NA,NA,NA,NA,warmup/swordfish.jpg,fish,some_college,NA,english,NA,NA,fish,NA,2,1574448908304,1,This is a,1.5,These are both,goldfish,NA,warmup2,NA
843,NA,pug,NA,Fri Nov 22 2019 13:55:08 GMT-0500 (Eastern Standard Time),NA,24,warmup/great-dane.jpg,pug,This is a,none,0,dogs,Margaret,great dane,NA,NA,Please label the pictures below.,NA,NA,NA,NA,NA,NA,warmup/pug.jpg,dogs,some_college,NA,english,NA,NA,dogs,NA,3,1574448908304,1,This is a,1.5,These are both,great dain,NA,warmup2,NA
843,NA,pug,NA,Fri Nov 22 2019 13:55:08 GMT-0500 (Eastern Standard Time),NA,24,warmup/great-dane.jpg,pug,This is a,none,0,dogs,Margaret,great dane,NA,NA,Please label the pictures below.,NA,NA,NA,NA,NA,NA,warmup/pug.jpg,dogs,some_college,NA,english,NA,NA,dogs,NA,3,1574448908304,2,This is a,1.5,These are both,great dane,NA,warmup2,NA
843,What do you think your friend meant?,NA,It is big  relative to other,Fri Nov 22 2019 13:55:08 GMT-0500 (Eastern Standard Time),ref-utility/redwoods-5-6.png,24,NA,NA,NA,none,0,trees,Margaret,NA,1,NA,"Your friend runs far ahead of you, and you see him in the distance:",prenominal,warmup/redwood.png,NA,redwood,NA,1,NA,NA,some_college,big,english,NA,NA,NA,You and your friend see the following:,1,1574448908304,NA,NA,1.5,NA,NA,congr,custom_main_text2,Your friend says: <br/><b>That's a big redwood.</b>
843,What do you think your friend meant?,NA,It is big  relative to other,Fri Nov 22 2019 13:55:08 GMT-0500 (Eastern Standard Time),ref-utility/great-danes-5-6.png,24,NA,NA,NA,none,0,dogs2,Margaret,NA,1,NA,"Your friend runs far ahead of you, and you see him in the distance:",prenominal,warmup/great-dane.png,NA,great dane,NA,1,NA,NA,some_college,big,english,NA,NA,NA,You and your friend see the following:,2,1574448908304,NA,NA,1.5,NA,NA,congr,custom_main_text2,Your friend says: <br/><b>That's a big great dane.</b>
843,What do you think your friend meant?,NA,It is small  relative to other,Fri Nov 22 2019 13:55:08 GMT-0500 (Eastern Standard Time),ref-utility/goldfish-5-6.png,24,NA,NA,NA,none,0,fish,Margaret,NA,1,NA,"Your friend runs far ahead of you, and you see him in the distance:",prenominal,warmup/goldfish.png,NA,goldfish,NA,1,NA,NA,some_college,small,english,NA,NA,NA,You and your friend see the following:,3,1574448908304,NA,NA,1.5,NA,NA,congr,custom_main_text2,Your friend says: <br/><b>That's a small goldfish.</b>
842,NA,hummingbird,NA,Fri Nov 22 2019 12:48:10 GMT-0600 (Central Standard Time),NA,24,warmup/eagle.jpg,hummingbird,This is a,no issues,2,birds,linda,eagle,NA,yes,Please label the pictures below.,NA,NA,62,NA,NA,NA,warmup/colibri.jpg,birds,graduated_college,NA,English,male,NA,birds,NA,1,1574448490458,1,This is an,1,These are both,eagle,NA,warmup1,NA
842,NA,bulldog,NA,Fri Nov 22 2019 12:48:10 GMT-0600 (Central Standard Time),NA,24,warmup/great-dane.jpg,pug,This is a,no issues,2,dogs,linda,great dane,NA,yes,Please label the pictures below.,NA,NA,62,NA,NA,NA,warmup/pug.jpg,dogs,graduated_college,NA,English,male,NA,dogs,NA,2,1574448490458,1,This is a,1,These are both,doberman,NA,warmup1,NA
842,NA,pug,NA,Fri Nov 22 2019 12:48:10 GMT-0600 (Central Standard Time),NA,24,warmup/great-dane.jpg,pug,This is a,no issues,2,dogs,linda,great dane,NA,yes,Please label the pictures below.,NA,NA,62,NA,NA,NA,warmup/pug.jpg,dogs,graduated_college,NA,English,male,NA,dogs,NA,2,1574448490458,2,This is a,1,These are both,great dane,NA,warmup1,NA
842,NA,daisy,NA,Fri Nov 22 2019 12:48:10 GMT-0600 (Central Standard Time),NA,24,warmup/sunflower_warmup.png,dandelion,This is a,no issues,2,flowers,linda,sunflower,NA,yes,Please label the pictures below.,NA,NA,62,NA,NA,NA,warmup/dandelion.jpg,flowers,graduated_college,NA,English,male,NA,flowers,NA,3,1574448490458,1,This is a,1,These are both,sunflower,NA,warmup1,NA
842,NA,dandelion,NA,Fri Nov 22 2019 12:48:10 GMT-0600 (Central Standard Time),NA,24,warmup/sunflower_warmup.png,dandelion,This is a,no issues,2,flowers,linda,sunflower,NA,yes,Please label the pictures below.,NA,NA,62,NA,NA,NA,warmup/dandelion.jpg,flowers,graduated_college,NA,English,male,NA,flowers,NA,3,1574448490458,2,This is a,1,These are both,sunflower,NA,warmup1,NA
842,What do you think your friend meant?,NA,It is big  relative to other,Fri Nov 22 2019 12:48:10 GMT-0600 (Central Standard Time),ref-utility/great-danes-5-6.png,24,NA,NA,NA,no issues,2,dogs2,linda,NA,1,yes,"Your friend runs far ahead of you, and you see him in the distance:",prenominal,warmup/great-dane.png,62,great danes,NA,1,NA,NA,graduated_college,big,English,male,NA,NA,You and your friend see the following:,1,1574448490458,NA,NA,1,NA,NA,congr,custom_main_text1,Your friend says: <br/><b>That's a big great dane.</b>
842,What do you think your friend meant?,NA,It is big  relative to other,Fri Nov 22 2019 12:48:10 GMT-0600 (Central Standard Time),ref-utility/sunflowers-5-6.png,24,NA,NA,NA,no issues,2,flowers,linda,NA,1,yes,"Your friend runs far ahead of you, and you see him in the distance:",prenominal,warmup/sunflower.png,62,sunflowers,NA,1,NA,NA,graduated_college,big,English,male,NA,NA,You and your friend see the following:,2,1574448490458,NA,NA,1,NA,NA,congr,custom_main_text1,Your friend says: <br/><b>That's a big sunflower.</b>
842,What do you think your friend meant?,NA,It is big  relative to other,Fri Nov 22 2019 12:48:10 GMT-0600 (Central Standard Time),ref-utility/eagles-5-6.png,24,NA,NA,NA,no issues,2,birds,linda,NA,1,yes,"Your friend runs far ahead of you, and you see him in the distance:",prenominal,warmup/eagle.png,62,eagles,NA,1,NA,NA,graduated_college,big,English,male,NA,NA,You and your friend see the following:,3,1574448490458,NA,NA,1,NA,NA,congr,custom_main_text1,Your friend says: <br/><b>That's a big eagle.</b>
842,NA,chiwauwau,NA,Fri Nov 22 2019 12:48:10 GMT-0600 (Central Standard Time),NA,24,warmup/doberman_warmup.png,chihuahua,This is a,no issues,2,dogs,linda,doberman,NA,yes,Please label the pictures below.,NA,NA,62,NA,NA,NA,warmup/chihuahua.jpg,dogs,graduated_college,NA,English,male,NA,dogs,NA,1,1574448490458,1,This is a,1,These are both,doberman,NA,warmup2,NA
842,NA,chihauhau,NA,Fri Nov 22 2019 12:48:10 GMT-0600 (Central Standard Time),NA,24,warmup/doberman_warmup.png,chihuahua,This is a,no issues,2,dogs,linda,doberman,NA,yes,Please label the pictures below.,NA,NA,62,NA,NA,NA,warmup/chihuahua.jpg,dogs,graduated_college,NA,English,male,NA,dogs,NA,1,1574448490458,2,This is a,1,These are both,doberman,NA,warmup2,NA
842,NA,chihauhau,NA,Fri Nov 22 2019 12:48:10 GMT-0600 (Central Standard Time),NA,24,warmup/doberman_warmup.png,chihuahua,This is a,no issues,2,dogs,linda,doberman,NA,yes,Please label the pictures below.,NA,NA,62,NA,NA,NA,warmup/chihuahua.jpg,dogs,graduated_college,NA,English,male,NA,dogs,NA,1,1574448490458,3,This is a,1,These are both,doberman,NA,warmup2,NA
842,NA,chihauhau,NA,Fri Nov 22 2019 12:48:10 GMT-0600 (Central Standard Time),NA,24,warmup/doberman_warmup.png,chihuahua,This is a,no issues,2,dogs,linda,doberman,NA,yes,Please label the pictures below.,NA,NA,62,NA,NA,NA,warmup/chihuahua.jpg,dogs,graduated_college,NA,English,male,NA,dogs,NA,1,1574448490458,4,This is a,1,These are both,doberman,NA,warmup2,NA
842,NA,chihuahua,NA,Fri Nov 22 2019 12:48:10 GMT-0600 (Central Standard Time),NA,24,warmup/doberman_warmup.png,chihuahua,This is a,no issues,2,dogs,linda,doberman,NA,yes,Please label the pictures below.,NA,NA,62,NA,NA,NA,warmup/chihuahua.jpg,dogs,graduated_college,NA,English,male,NA,dogs,NA,1,1574448490458,5,This is a,1,These are both,doberman,NA,warmup2,NA
842,NA,swordfish,NA,Fri Nov 22 2019 12:48:10 GMT-0600 (Central Standard Time),NA,24,warmup/goldfish_warmup.png,swordfish,This is a,no issues,2,fish,linda,goldfish,NA,yes,Please label the pictures below.,NA,NA,62,NA,NA,NA,warmup/swordfish.jpg,fish,graduated_college,NA,English,male,NA,fish,NA,2,1574448490458,1,This is a,1,These are both,goldfish,NA,warmup2,NA
842,NA,redwood,NA,Fri Nov 22 2019 12:48:10 GMT-0600 (Central Standard Time),NA,24,warmup/bonsai.jpg,redwood or sequoia (choose one),This is a,no issues,2,trees,linda,bonsai,NA,yes,Please label the pictures below.,NA,NA,62,NA,NA,NA,warmup/sequoia.png,trees,graduated_college,NA,English,male,NA,trees,NA,3,1574448490458,1,This is a,1,These are both,bonsai,NA,warmup2,NA
842,What do you think your friend meant?,NA,It is small  relative to other,Fri Nov 22 2019 12:48:10 GMT-0600 (Central Standard Time),ref-utility/chihuahuas-5-6.png,24,NA,NA,NA,no issues,2,dogs1,linda,NA,1,yes,"Your friend runs far ahead of you, and you see him in the distance:",prenominal,warmup/chihuahua.png,62,chihuahuas,NA,1,NA,NA,graduated_college,small,English,male,NA,NA,You and your friend see the following:,1,1574448490458,NA,NA,1,NA,NA,congr,custom_main_text2,Your friend says: <br/><b>That's a small chihuahua.</b>
842,What do you think your friend meant?,NA,It is small  relative to other,Fri Nov 22 2019 12:48:10 GMT-0600 (Central Standard Time),ref-utility/bonsais-5-6.png,24,NA,NA,NA,no issues,2,trees,linda,NA,1,yes,"Your friend runs far ahead of you, and you see him in the distance:",prenominal,warmup/bonsai.png,62,bonsais,NA,1,NA,NA,graduated_college,small,English,male,NA,NA,You and your friend see the following:,2,1574448490458,NA,NA,1,NA,NA,congr,custom_main_text2,Your friend says: <br/><b>That's a small bonsai.</b>
842,What do you think your friend meant?,NA,It is small  relative to other,Fri Nov 22 2019 12:48:10 GMT-0600 (Central Standard Time),ref-utility/goldfish-5-6.png,24,NA,NA,NA,no issues,2,fish,linda,NA,1,yes,"Your friend runs far ahead of you, and you see him in the distance:",prenominal,warmup/goldfish.png,62,goldfish,NA,1,NA,NA,graduated_college,small,English,male,NA,NA,You and your friend see the following:,3,1574448490458,NA,NA,1,NA,NA,congr,custom_main_text2,Your friend says: <br/><b>That's a small goldfish.</b>
841,NA,Chihuahua,NA,Fri Nov 22 2019 13:47:44 GMT-0500 (Eastern Standard Time),NA,24,warmup/doberman_warmup.png,chihuahua,This is a,none whatsoever,1,dogs,mary,doberman,NA,yes,Please label the pictures below.,NA,NA,31,NA,It was an enlightening experiment,NA,warmup/chihuahua.jpg,dogs,graduated_college,NA,English,male,NA,dogs,NA,1,1574448464674,1,This is a,1,These are both,weimaraner,NA,warmup1,NA
841,NA,Chihuahua,NA,Fri Nov 22 2019 13:47:44 GMT-0500 (Eastern Standard Time),NA,24,warmup/doberman_warmup.png,chihuahua,This is a,none whatsoever,1,dogs,mary,doberman,NA,yes,Please label the pictures below.,NA,NA,31,NA,It was an enlightening experiment,NA,warmup/chihuahua.jpg,dogs,graduated_college,NA,English,male,NA,dogs,NA,1,1574448464674,2,This is a,1,These are both,doberman,NA,warmup1,NA
841,NA,bulldog,NA,Fri Nov 22 2019 13:47:44 GMT-0500 (Eastern Standard Time),NA,24,warmup/great-dane.jpg,pug,This is a,none whatsoever,1,dogs,mary,great dane,NA,yes,Please label the pictures below.,NA,NA,31,NA,It was an enlightening experiment,NA,warmup/pug.jpg,dogs,graduated_college,NA,English,male,NA,dogs,NA,2,1574448464674,1,This is a,1,These are both,dobermann,NA,warmup1,NA
841,NA,pug,NA,Fri Nov 22 2019 13:47:44 GMT-0500 (Eastern Standard Time),NA,24,warmup/great-dane.jpg,pug,This is a,none whatsoever,1,dogs,mary,great dane,NA,yes,Please label the pictures below.,NA,NA,31,NA,It was an enlightening experiment,NA,warmup/pug.jpg,dogs,graduated_college,NA,English,male,NA,dogs,NA,2,1574448464674,2,This is a,1,These are both,great dane,NA,warmup1,NA
841,NA,dandelion,NA,Fri Nov 22 2019 13:47:44 GMT-0500 (Eastern Standard Time),NA,24,warmup/sunflower_warmup.png,dandelion,This is a,none whatsoever,1,flowers,mary,sunflower,NA,yes,Please label the pictures below.,NA,NA,31,NA,It was an enlightening experiment,NA,warmup/dandelion.jpg,flowers,graduated_college,NA,English,male,NA,flowers,NA,3,1574448464674,1,This is a,1,These are both,sunflower,NA,warmup1,NA
841,What do you think your friend meant?,NA,It is big  relative to other,Fri Nov 22 2019 13:47:44 GMT-0500 (Eastern Standard Time),ref-utility/great-danes-5-6.png,24,NA,NA,NA,none whatsoever,1,dogs2,mary,NA,1,yes,"Your friend runs far ahead of you, and you see him in the distance:",prenominal,warmup/great-dane.png,31,dog,It was an enlightening experiment,1,NA,NA,graduated_college,big,English,male,NA,NA,You and your friend see the following:,1,1574448464674,NA,NA,1,NA,NA,congr,custom_main_text1,Your friend says: <br/><b>That's a big great dane.</b>
841,What do you think your friend meant?,NA,It is small  relative to other,Fri Nov 22 2019 13:47:44 GMT-0500 (Eastern Standard Time),ref-utility/dandelions-5-6.png,24,NA,NA,NA,none whatsoever,1,flowers,mary,NA,1,yes,"Your friend runs far ahead of you, and you see him in the distance:",prenominal,warmup/dandelion.png,31,flower,It was an enlightening experiment,1,NA,NA,graduated_college,small,English,male,NA,NA,You and your friend see the following:,2,1574448464674,NA,NA,1,NA,NA,congr,custom_main_text1,Your friend says: <br/><b>That's a small dandelion.</b>
841,What do you think your friend meant?,NA,It is big  relative to other,Fri Nov 22 2019 13:47:44 GMT-0500 (Eastern Standard Time),ref-utility/doberman-5-6.png,24,NA,NA,NA,none whatsoever,1,dogs1,mary,NA,1,yes,"Your friend runs far ahead of you, and you see him in the distance:",prenominal,warmup/doberman.png,31,doberman,It was an enlightening experiment,1,NA,NA,graduated_college,big,English,male,NA,NA,You and your friend see the following:,3,1574448464674,NA,NA,1,NA,NA,congr,custom_main_text1,Your friend says: <br/><b>That's a big doberman.</b>
841,NA,marlin,NA,Fri Nov 22 2019 13:47:44 GMT-0500 (Eastern Standard Time),NA,24,warmup/goldfish_warmup.png,swordfish,This is a,none whatsoever,1,fish,mary,goldfish,NA,yes,Please label the pictures below.,NA,NA,31,NA,It was an enlightening experiment,NA,warmup/swordfish.jpg,fishes,graduated_college,NA,English,male,NA,fish,NA,1,1574448464674,1,This is a,1,These are both,tilapia,NA,warmup2,NA
841,NA,swordfish,NA,Fri Nov 22 2019 13:47:44 GMT-0500 (Eastern Standard Time),NA,24,warmup/goldfish_warmup.png,swordfish,This is a,none whatsoever,1,fish,mary,goldfish,NA,yes,Please label the pictures below.,NA,NA,31,NA,It was an enlightening experiment,NA,warmup/swordfish.jpg,fish,graduated_college,NA,English,male,NA,fish,NA,1,1574448464674,2,This is a,1,These are both,goldfish,NA,warmup2,NA
841,NA,hummingbird,NA,Fri Nov 22 2019 13:47:44 GMT-0500 (Eastern Standard Time),NA,24,warmup/eagle.jpg,hummingbird,This is a,none whatsoever,1,birds,mary,eagle,NA,yes,Please label the pictures below.,NA,NA,31,NA,It was an enlightening experiment,NA,warmup/colibri.jpg,bird,graduated_college,NA,English,male,NA,birds,NA,2,1574448464674,1,This is an,1,These are both,eagle,NA,warmup2,NA
