submission_id,question,response1,sentence_left,startDate,context_picture,experiment_id,picture2,correct1,question1,problems,enjoyment,item,botresponse,correct2,pic_spec,understand,text,condition,target,age,response,comments,ref_spec,picture1,response3,education,target_size,languages,sex,RT,correct3,context,trial_number,startTime,attempts,question3,fairprice,question2,response2,adj_cond,trial_name,utterance
905,NA,hummingbird,NA,Mon Nov 25 2019 10:39:22 GMT-0600 (Central Standard Time),NA,23,warmup/eagle.jpg,hummingbird,This is a,Nope worked perfectly although at first I thought I was doing something wrong when I was met with another trial after the first task.,2,birds,elizabeth,eagle,NA,yes,Please label the pictures below.,NA,NA,29,NA,Great HIT keep up the great work MIT,NA,warmup/colibri.jpg,birds,graduated_college,NA,English,male,NA,birds,NA,1,1574699962278,1,This is an,1,These are both,eagle,NA,warmup1,NA
905,NA,sword fish,NA,Mon Nov 25 2019 10:39:22 GMT-0600 (Central Standard Time),NA,23,warmup/goldfish_warmup.png,swordfish,This is a,Nope worked perfectly although at first I thought I was doing something wrong when I was met with another trial after the first task.,2,fish,elizabeth,goldfish,NA,yes,Please label the pictures below.,NA,NA,29,NA,Great HIT keep up the great work MIT,NA,warmup/swordfish.jpg,fish,graduated_college,NA,English,male,NA,fish,NA,2,1574699962278,1,This is a,1,These are both,goldfish,NA,warmup1,NA
905,NA,swordfish,NA,Mon Nov 25 2019 10:39:22 GMT-0600 (Central Standard Time),NA,23,warmup/goldfish_warmup.png,swordfish,This is a,Nope worked perfectly although at first I thought I was doing something wrong when I was met with another trial after the first task.,2,fish,elizabeth,goldfish,NA,yes,Please label the pictures below.,NA,NA,29,NA,Great HIT keep up the great work MIT,NA,warmup/swordfish.jpg,fish,graduated_college,NA,English,male,NA,fish,NA,2,1574699962278,2,This is a,1,These are both,goldfish,NA,warmup1,NA
905,NA,red oak,NA,Mon Nov 25 2019 10:39:22 GMT-0600 (Central Standard Time),NA,23,warmup/bonsai.jpg,redwood or sequoia (choose one),This is a,Nope worked perfectly although at first I thought I was doing something wrong when I was met with another trial after the first task.,2,trees,elizabeth,bonsai,NA,yes,Please label the pictures below.,NA,NA,29,NA,Great HIT keep up the great work MIT,NA,warmup/sequoia.png,trees,graduated_college,NA,English,male,NA,trees,NA,3,1574699962278,1,This is a,1,These are both,bonzai,NA,warmup1,NA
905,NA,redwood,NA,Mon Nov 25 2019 10:39:22 GMT-0600 (Central Standard Time),NA,23,warmup/bonsai.jpg,redwood or sequoia (choose one),This is a,Nope worked perfectly although at first I thought I was doing something wrong when I was met with another trial after the first task.,2,trees,elizabeth,bonsai,NA,yes,Please label the pictures below.,NA,NA,29,NA,Great HIT keep up the great work MIT,NA,warmup/sequoia.png,trees,graduated_college,NA,English,male,NA,trees,NA,3,1574699962278,2,This is a,1,These are both,bonsai,NA,warmup1,NA
905,What do you think your friend meant?,NA,It is small relative to other,Mon Nov 25 2019 10:39:22 GMT-0600 (Central Standard Time),ref-utility/goldfish-5-6.png,23,NA,NA,NA,Nope worked perfectly although at first I thought I was doing something wrong when I was met with another trial after the first task.,2,fish,elizabeth,NA,1,yes,"Your friend runs far ahead of you, and you see him in the distance:",predicative,warmup/goldfish.png,29,goldfish,Great HIT keep up the great work MIT,1,NA,NA,graduated_college,small,English,male,NA,NA,You and your friend see the following:,1,1574699962278,NA,NA,1,NA,NA,congr,custom_main_text1,Your friend says: <br/><b>That goldfish is small.</b>
905,What do you think your friend meant?,NA,It is small relative to other,Mon Nov 25 2019 10:39:22 GMT-0600 (Central Standard Time),ref-utility/bonsais-5-6.png,23,NA,NA,NA,Nope worked perfectly although at first I thought I was doing something wrong when I was met with another trial after the first task.,2,trees,elizabeth,NA,1,yes,"Your friend runs far ahead of you, and you see him in the distance:",predicative,warmup/bonsai.png,29,bonsais,Great HIT keep up the great work MIT,1,NA,NA,graduated_college,small,English,male,NA,NA,You and your friend see the following:,2,1574699962278,NA,NA,1,NA,NA,congr,custom_main_text1,Your friend says: <br/><b>That bonsai is small.</b>
905,What do you think your friend meant?,NA,It is small relative to other,Mon Nov 25 2019 10:39:22 GMT-0600 (Central Standard Time),ref-utility/hummingbirds-5-6.png,23,NA,NA,NA,Nope worked perfectly although at first I thought I was doing something wrong when I was met with another trial after the first task.,2,birds,elizabeth,NA,1,yes,"Your friend runs far ahead of you, and you see him in the distance:",predicative,warmup/hummingbird.png,29,hummingbirds,Great HIT keep up the great work MIT,1,NA,NA,graduated_college,small,English,male,NA,NA,You and your friend see the following:,3,1574699962278,NA,NA,1,NA,NA,congr,custom_main_text1,Your friend says: <br/><b>That hummingbird is small.</b>
905,NA,pug,NA,Mon Nov 25 2019 10:39:22 GMT-0600 (Central Standard Time),NA,23,warmup/great-dane.jpg,pug,This is a,Nope worked perfectly although at first I thought I was doing something wrong when I was met with another trial after the first task.,2,dogs,elizabeth,great dane,NA,yes,Please label the pictures below.,NA,NA,29,NA,Great HIT keep up the great work MIT,NA,warmup/pug.jpg,dogs,graduated_college,NA,English,male,NA,dogs,NA,1,1574699962278,1,This is a,1,These are both,lab,NA,warmup2,NA
905,NA,pug,NA,Mon Nov 25 2019 10:39:22 GMT-0600 (Central Standard Time),NA,23,warmup/great-dane.jpg,pug,This is a,Nope worked perfectly although at first I thought I was doing something wrong when I was met with another trial after the first task.,2,dogs,elizabeth,great dane,NA,yes,Please label the pictures below.,NA,NA,29,NA,Great HIT keep up the great work MIT,NA,warmup/pug.jpg,dogs,graduated_college,NA,English,male,NA,dogs,NA,1,1574699962278,2,This is a,1,These are both,great dane,NA,warmup2,NA
905,NA,chiuaha,NA,Mon Nov 25 2019 10:39:22 GMT-0600 (Central Standard Time),NA,23,warmup/doberman_warmup.png,chihuahua,This is a,Nope worked perfectly although at first I thought I was doing something wrong when I was met with another trial after the first task.,2,dogs,elizabeth,doberman,NA,yes,Please label the pictures below.,NA,NA,29,NA,Great HIT keep up the great work MIT,NA,warmup/chihuahua.jpg,dogs,graduated_college,NA,English,male,NA,dogs,NA,2,1574699962278,1,This is a,1,These are both,dovermin,NA,warmup2,NA
905,NA,chihuahua,NA,Mon Nov 25 2019 10:39:22 GMT-0600 (Central Standard Time),NA,23,warmup/doberman_warmup.png,chihuahua,This is a,Nope worked perfectly although at first I thought I was doing something wrong when I was met with another trial after the first task.,2,dogs,elizabeth,doberman,NA,yes,Please label the pictures below.,NA,NA,29,NA,Great HIT keep up the great work MIT,NA,warmup/chihuahua.jpg,dogs,graduated_college,NA,English,male,NA,dogs,NA,2,1574699962278,2,This is a,1,These are both,dobermin,NA,warmup2,NA
905,NA,chihuahua,NA,Mon Nov 25 2019 10:39:22 GMT-0600 (Central Standard Time),NA,23,warmup/doberman_warmup.png,chihuahua,This is a,Nope worked perfectly although at first I thought I was doing something wrong when I was met with another trial after the first task.,2,dogs,elizabeth,doberman,NA,yes,Please label the pictures below.,NA,NA,29,NA,Great HIT keep up the great work MIT,NA,warmup/chihuahua.jpg,dogs,graduated_college,NA,English,male,NA,dogs,NA,2,1574699962278,3,This is a,1,These are both,dobermin,NA,warmup2,NA
905,NA,chihuahua,NA,Mon Nov 25 2019 10:39:22 GMT-0600 (Central Standard Time),NA,23,warmup/doberman_warmup.png,chihuahua,This is a,Nope worked perfectly although at first I thought I was doing something wrong when I was met with another trial after the first task.,2,dogs,elizabeth,doberman,NA,yes,Please label the pictures below.,NA,NA,29,NA,Great HIT keep up the great work MIT,NA,warmup/chihuahua.jpg,dogs,graduated_college,NA,English,male,NA,dogs,NA,2,1574699962278,4,This is a,1,These are both,dobermin,NA,warmup2,NA
905,NA,chihuahua,NA,Mon Nov 25 2019 10:39:22 GMT-0600 (Central Standard Time),NA,23,warmup/doberman_warmup.png,chihuahua,This is a,Nope worked perfectly although at first I thought I was doing something wrong when I was met with another trial after the first task.,2,dogs,elizabeth,doberman,NA,yes,Please label the pictures below.,NA,NA,29,NA,Great HIT keep up the great work MIT,NA,warmup/chihuahua.jpg,dogs,graduated_college,NA,English,male,NA,dogs,NA,2,1574699962278,5,This is a,1,These are both,dobermin,NA,warmup2,NA
905,NA,chihuahua,NA,Mon Nov 25 2019 10:39:22 GMT-0600 (Central Standard Time),NA,23,warmup/doberman_warmup.png,chihuahua,This is a,Nope worked perfectly although at first I thought I was doing something wrong when I was met with another trial after the first task.,2,dogs,elizabeth,doberman,NA,yes,Please label the pictures below.,NA,NA,29,NA,Great HIT keep up the great work MIT,NA,warmup/chihuahua.jpg,dogs,graduated_college,NA,English,male,NA,dogs,NA,2,1574699962278,6,This is a,1,These are both,doberman,NA,warmup2,NA
905,NA,daisy,NA,Mon Nov 25 2019 10:39:22 GMT-0600 (Central Standard Time),NA,23,warmup/sunflower_warmup.png,dandelion,This is a,Nope worked perfectly although at first I thought I was doing something wrong when I was met with another trial after the first task.,2,flowers,elizabeth,sunflower,NA,yes,Please label the pictures below.,NA,NA,29,NA,Great HIT keep up the great work MIT,NA,warmup/dandelion.jpg,flowers,graduated_college,NA,English,male,NA,flowers,NA,3,1574699962278,1,This is a,1,These are both,sunflower,NA,warmup2,NA
905,NA,dandelion,NA,Mon Nov 25 2019 10:39:22 GMT-0600 (Central Standard Time),NA,23,warmup/sunflower_warmup.png,dandelion,This is a,Nope worked perfectly although at first I thought I was doing something wrong when I was met with another trial after the first task.,2,flowers,elizabeth,sunflower,NA,yes,Please label the pictures below.,NA,NA,29,NA,Great HIT keep up the great work MIT,NA,warmup/dandelion.jpg,flowers,graduated_college,NA,English,male,NA,flowers,NA,3,1574699962278,2,This is a,1,These are both,sunflower,NA,warmup2,NA
905,What do you think your friend meant?,NA,It is big relative to other,Mon Nov 25 2019 10:39:22 GMT-0600 (Central Standard Time),ref-utility/sunflowers-5-6.png,23,NA,NA,NA,Nope worked perfectly although at first I thought I was doing something wrong when I was met with another trial after the first task.,2,flowers,elizabeth,NA,1,yes,"Your friend runs far ahead of you, and you see him in the distance:",predicative,warmup/sunflower.png,29,flowers,Great HIT keep up the great work MIT,1,NA,NA,graduated_college,big,English,male,NA,NA,You and your friend see the following:,1,1574699962278,NA,NA,1,NA,NA,congr,custom_main_text2,Your friend says: <br/><b>That sunflower is big.</b>
905,What do you think your friend meant?,NA,It is big relative to other,Mon Nov 25 2019 10:39:22 GMT-0600 (Central Standard Time),ref-utility/doberman-5-6.png,23,NA,NA,NA,Nope worked perfectly although at first I thought I was doing something wrong when I was met with another trial after the first task.,2,dogs1,elizabeth,NA,1,yes,"Your friend runs far ahead of you, and you see him in the distance:",predicative,warmup/doberman.png,29,poodle,Great HIT keep up the great work MIT,1,NA,NA,graduated_college,big,English,male,NA,NA,You and your friend see the following:,2,1574699962278,NA,NA,1,NA,NA,congr,custom_main_text2,Your friend says: <br/><b>That doberman is big.</b>
905,What do you think your friend meant?,NA,It is big relative to other,Mon Nov 25 2019 10:39:22 GMT-0600 (Central Standard Time),ref-utility/great-danes-5-6.png,23,NA,NA,NA,Nope worked perfectly although at first I thought I was doing something wrong when I was met with another trial after the first task.,2,dogs2,elizabeth,NA,1,yes,"Your friend runs far ahead of you, and you see him in the distance:",predicative,warmup/great-dane.png,29,dogs,Great HIT keep up the great work MIT,1,NA,NA,graduated_college,big,English,male,NA,NA,You and your friend see the following:,3,1574699962278,NA,NA,1,NA,NA,congr,custom_main_text2,Your friend says: <br/><b>That great dane is big.</b>
904,NA,dandelion,NA,Mon Nov 25 2019 09:38:20 GMT-0700 (Mountain Standard Time),NA,23,warmup/sunflower_warmup.png,dandelion,This is a,No,2,flowers,barbara,sunflower,NA,yes,Please label the pictures below.,NA,NA,31,NA,Thank you,NA,warmup/dandelion.jpg,yellow,some_college,NA,English,male,NA,flowers,NA,1,1574699900207,1,This is a,1,These are both,sunflower,NA,warmup1,NA
904,NA,dandelion,NA,Mon Nov 25 2019 09:38:20 GMT-0700 (Mountain Standard Time),NA,23,warmup/sunflower_warmup.png,dandelion,This is a,No,2,flowers,barbara,sunflower,NA,yes,Please label the pictures below.,NA,NA,31,NA,Thank you,NA,warmup/dandelion.jpg,flowers,some_college,NA,English,male,NA,flowers,NA,1,1574699900207,2,This is a,1,These are both,sunflower,NA,warmup1,NA
904,NA,marlin,NA,Mon Nov 25 2019 09:38:20 GMT-0700 (Mountain Standard Time),NA,23,warmup/goldfish_warmup.png,swordfish,This is a,No,2,fish,barbara,goldfish,NA,yes,Please label the pictures below.,NA,NA,31,NA,Thank you,NA,warmup/swordfish.jpg,fish,some_college,NA,English,male,NA,fish,NA,2,1574699900207,1,This is a,1,These are both,clownfish,NA,warmup1,NA
904,NA,swordfish,NA,Mon Nov 25 2019 09:38:20 GMT-0700 (Mountain Standard Time),NA,23,warmup/goldfish_warmup.png,swordfish,This is a,No,2,fish,barbara,goldfish,NA,yes,Please label the pictures below.,NA,NA,31,NA,Thank you,NA,warmup/swordfish.jpg,fish,some_college,NA,English,male,NA,fish,NA,2,1574699900207,2,This is a,1,These are both,goldfish,NA,warmup1,NA
904,NA,oak tree,NA,Mon Nov 25 2019 09:38:20 GMT-0700 (Mountain Standard Time),NA,23,warmup/bonsai.jpg,redwood or sequoia (choose one),This is a,No,2,trees,barbara,bonsai,NA,yes,Please label the pictures below.,NA,NA,31,NA,Thank you,NA,warmup/sequoia.png,trees,some_college,NA,English,male,NA,trees,NA,3,1574699900207,1,This is a,1,These are both,bonzai,NA,warmup1,NA
904,NA,redwood,NA,Mon Nov 25 2019 09:38:20 GMT-0700 (Mountain Standard Time),NA,23,warmup/bonsai.jpg,redwood or sequoia (choose one),This is a,No,2,trees,barbara,bonsai,NA,yes,Please label the pictures below.,NA,NA,31,NA,Thank you,NA,warmup/sequoia.png,trees,some_college,NA,English,male,NA,trees,NA,3,1574699900207,2,This is a,1,These are both,bonsai,NA,warmup1,NA
904,What do you think your friend meant?,NA,It is big relative to other,Mon Nov 25 2019 09:38:20 GMT-0700 (Mountain Standard Time),ref-utility/sunflowers-5-6.png,23,NA,NA,NA,No,2,flowers,barbara,NA,1,yes,"Your friend runs far ahead of you, and you see him in the distance:",predicative,warmup/sunflower.png,31,flowers,Thank you,1,NA,NA,some_college,big,English,male,NA,NA,You and your friend see the following:,1,1574699900207,NA,NA,1,NA,NA,congr,custom_main_text1,Your friend says: <br/><b>That sunflower is big.</b>
904,What do you think your friend meant?,NA,It is big relative to other,Mon Nov 25 2019 09:38:20 GMT-0700 (Mountain Standard Time),ref-utility/swordfish-5-6.png,23,NA,NA,NA,No,2,fish,barbara,NA,1,yes,"Your friend runs far ahead of you, and you see him in the distance:",predicative,warmup/swordfish.png,31,fish,Thank you,1,NA,NA,some_college,big,English,male,NA,NA,You and your friend see the following:,2,1574699900207,NA,NA,1,NA,NA,congr,custom_main_text1,Your friend says: <br/><b>That swordfish is big.</b>
904,What do you think your friend meant?,NA,It is small relative to other,Mon Nov 25 2019 09:38:20 GMT-0700 (Mountain Standard Time),ref-utility/bonsais-5-6.png,23,NA,NA,NA,No,2,trees,barbara,NA,1,yes,"Your friend runs far ahead of you, and you see him in the distance:",predicative,warmup/bonsai.png,31,trees,Thank you,1,NA,NA,some_college,small,English,male,NA,NA,You and your friend see the following:,3,1574699900207,NA,NA,1,NA,NA,congr,custom_main_text1,Your friend says: <br/><b>That bonsai is small.</b>
904,NA,chihuahua,NA,Mon Nov 25 2019 09:38:20 GMT-0700 (Mountain Standard Time),NA,23,warmup/doberman_warmup.png,chihuahua,This is a,No,2,dogs,barbara,doberman,NA,yes,Please label the pictures below.,NA,NA,31,NA,Thank you,NA,warmup/chihuahua.jpg,dogs,some_college,NA,English,male,NA,dogs,NA,1,1574699900207,1,This is a,1,These are both,hound,NA,warmup2,NA
904,NA,chihuahua,NA,Mon Nov 25 2019 09:38:20 GMT-0700 (Mountain Standard Time),NA,23,warmup/doberman_warmup.png,chihuahua,This is a,No,2,dogs,barbara,doberman,NA,yes,Please label the pictures below.,NA,NA,31,NA,Thank you,NA,warmup/chihuahua.jpg,dogs,some_college,NA,English,male,NA,dogs,NA,1,1574699900207,2,This is a,1,These are both,doberman,NA,warmup2,NA
904,NA,pug,NA,Mon Nov 25 2019 09:38:20 GMT-0700 (Mountain Standard Time),NA,23,warmup/great-dane.jpg,pug,This is a,No,2,dogs,barbara,great dane,NA,yes,Please label the pictures below.,NA,NA,31,NA,Thank you,NA,warmup/pug.jpg,dogs,some_college,NA,English,male,NA,dogs,NA,2,1574699900207,1,This is a,1,These are both,hound,NA,warmup2,NA
904,NA,pug,NA,Mon Nov 25 2019 09:38:20 GMT-0700 (Mountain Standard Time),NA,23,warmup/great-dane.jpg,pug,This is a,No,2,dogs,barbara,great dane,NA,yes,Please label the pictures below.,NA,NA,31,NA,Thank you,NA,warmup/pug.jpg,dogs,some_college,NA,English,male,NA,dogs,NA,2,1574699900207,2,This is a,1,These are both,great dane,NA,warmup2,NA
904,NA,hummingbird,NA,Mon Nov 25 2019 09:38:20 GMT-0700 (Mountain Standard Time),NA,23,warmup/eagle.jpg,hummingbird,This is a,No,2,birds,barbara,eagle,NA,yes,Please label the pictures below.,NA,NA,31,NA,Thank you,NA,warmup/colibri.jpg,birds,some_college,NA,English,male,NA,birds,NA,3,1574699900207,1,This is an,1,These are both,eagle,NA,warmup2,NA
904,What do you think your friend meant?,NA,It is big relative to other,Mon Nov 25 2019 09:38:20 GMT-0700 (Mountain Standard Time),ref-utility/eagles-5-6.png,23,NA,NA,NA,No,2,birds,barbara,NA,1,yes,"Your friend runs far ahead of you, and you see him in the distance:",predicative,warmup/eagle.png,31,birds,Thank you,1,NA,NA,some_college,big,English,male,NA,NA,You and your friend see the following:,1,1574699900207,NA,NA,1,NA,NA,congr,custom_main_text2,Your friend says: <br/><b>That eagle is big.</b>
904,What do you think your friend meant?,NA,It is small relative to other,Mon Nov 25 2019 09:38:20 GMT-0700 (Mountain Standard Time),ref-utility/chihuahuas-5-6.png,23,NA,NA,NA,No,2,dogs1,barbara,NA,1,yes,"Your friend runs far ahead of you, and you see him in the distance:",predicative,warmup/chihuahua.png,31,dogs,Thank you,1,NA,NA,some_college,small,English,male,NA,NA,You and your friend see the following:,2,1574699900207,NA,NA,1,NA,NA,congr,custom_main_text2,Your friend says: <br/><b>That chihuahua is small.</b>
904,What do you think your friend meant?,NA,It is small relative to other,Mon Nov 25 2019 09:38:20 GMT-0700 (Mountain Standard Time),ref-utility/pugs-5-6.png,23,NA,NA,NA,No,2,dogs2,barbara,NA,1,yes,"Your friend runs far ahead of you, and you see him in the distance:",predicative,warmup/pug.png,31,dogs,Thank you,1,NA,NA,some_college,small,English,male,NA,NA,You and your friend see the following:,3,1574699900207,NA,NA,1,NA,NA,congr,custom_main_text2,Your friend says: <br/><b>That pug is small.</b>
903,NA,dandelion,NA,Mon Nov 25 2019 11:36:08 GMT-0500 (Eastern Standard Time),NA,23,warmup/sunflower_warmup.png,dandelion,This is a,No,2,flowers,jennifer,sunflower,NA,yes,Please label the pictures below.,NA,NA,22,NA,NA,NA,warmup/dandelion.jpg,flowers,graduated_college,NA,English,male,NA,flowers,NA,1,1574699768442,1,This is a,1,These are both,sunflower,NA,warmup1,NA
903,NA,redwood,NA,Mon Nov 25 2019 11:36:08 GMT-0500 (Eastern Standard Time),NA,23,warmup/bonsai.jpg,redwood or sequoia (choose one),This is a,No,2,trees,jennifer,bonsai,NA,yes,Please label the pictures below.,NA,NA,22,NA,NA,NA,warmup/sequoia.png,trees,graduated_college,NA,English,male,NA,trees,NA,2,1574699768442,1,This is a,1,These are both,bonsai,NA,warmup1,NA
903,NA,hummingbird,NA,Mon Nov 25 2019 11:36:08 GMT-0500 (Eastern Standard Time),NA,23,warmup/eagle.jpg,hummingbird,This is a,No,2,birds,jennifer,eagle,NA,yes,Please label the pictures below.,NA,NA,22,NA,NA,NA,warmup/colibri.jpg,birds,graduated_college,NA,English,male,NA,birds,NA,3,1574699768442,1,This is an,1,These are both,eagle,NA,warmup1,NA
903,What do you think your friend meant?,NA,It is big relative to other,Mon Nov 25 2019 11:36:08 GMT-0500 (Eastern Standard Time),ref-utility/sunflowers-5-6.png,23,NA,NA,NA,No,2,flowers,jennifer,NA,1,yes,"Your friend runs far ahead of you, and you see him in the distance:",predicative,warmup/sunflower.png,22,sunflowers,NA,1,NA,NA,graduated_college,big,English,male,NA,NA,You and your friend see the following:,1,1574699768442,NA,NA,1,NA,NA,congr,custom_main_text1,Your friend says: <br/><b>That sunflower is big.</b>
903,What do you think your friend meant?,NA,It is big relative to other,Mon Nov 25 2019 11:36:08 GMT-0500 (Eastern Standard Time),ref-utility/redwoods-5-6.png,23,NA,NA,NA,No,2,trees,jennifer,NA,1,yes,"Your friend runs far ahead of you, and you see him in the distance:",predicative,warmup/redwood.png,22,redwoods,NA,1,NA,NA,graduated_college,big,English,male,NA,NA,You and your friend see the following:,2,1574699768442,NA,NA,1,NA,NA,congr,custom_main_text1,Your friend says: <br/><b>That redwood is big.</b>
903,What do you think your friend meant?,NA,It is small relative to other,Mon Nov 25 2019 11:36:08 GMT-0500 (Eastern Standard Time),ref-utility/hummingbirds-5-6.png,23,NA,NA,NA,No,2,birds,jennifer,NA,1,yes,"Your friend runs far ahead of you, and you see him in the distance:",predicative,warmup/hummingbird.png,22,hummingbirds,NA,1,NA,NA,graduated_college,small,English,male,NA,NA,You and your friend see the following:,3,1574699768442,NA,NA,1,NA,NA,congr,custom_main_text1,Your friend says: <br/><b>That hummingbird is small.</b>
903,NA,blue marlin,NA,Mon Nov 25 2019 11:36:08 GMT-0500 (Eastern Standard Time),NA,23,warmup/goldfish_warmup.png,swordfish,This is a,No,2,fish,jennifer,goldfish,NA,yes,Please label the pictures below.,NA,NA,22,NA,NA,NA,warmup/swordfish.jpg,fish,graduated_college,NA,English,male,NA,fish,NA,1,1574699768442,1,This is a,1,These are both,goldfish,NA,warmup2,NA
903,NA,swordfish,NA,Mon Nov 25 2019 11:36:08 GMT-0500 (Eastern Standard Time),NA,23,warmup/goldfish_warmup.png,swordfish,This is a,No,2,fish,jennifer,goldfish,NA,yes,Please label the pictures below.,NA,NA,22,NA,NA,NA,warmup/swordfish.jpg,fish,graduated_college,NA,English,male,NA,fish,NA,1,1574699768442,2,This is a,1,These are both,goldfish,NA,warmup2,NA
903,NA,pug,NA,Mon Nov 25 2019 11:36:08 GMT-0500 (Eastern Standard Time),NA,23,warmup/great-dane.jpg,pug,This is a,No,2,dogs,jennifer,great dane,NA,yes,Please label the pictures below.,NA,NA,22,NA,NA,NA,warmup/pug.jpg,dogs,graduated_college,NA,English,male,NA,dogs,NA,2,1574699768442,1,This is a,1,These are both,great dane,NA,warmup2,NA
903,NA,chihuahua,NA,Mon Nov 25 2019 11:36:08 GMT-0500 (Eastern Standard Time),NA,23,warmup/doberman_warmup.png,chihuahua,This is a,No,2,dogs,jennifer,doberman,NA,yes,Please label the pictures below.,NA,NA,22,NA,NA,NA,warmup/chihuahua.jpg,dogs,graduated_college,NA,English,male,NA,dogs,NA,3,1574699768442,1,This is a,1,These are both,doberman,NA,warmup2,NA
903,What do you think your friend meant?,NA,It is small relative to other,Mon Nov 25 2019 11:36:08 GMT-0500 (Eastern Standard Time),ref-utility/pugs-5-6.png,23,NA,NA,NA,No,2,dogs2,jennifer,NA,1,yes,"Your friend runs far ahead of you, and you see him in the distance:",predicative,warmup/pug.png,22,pugs,NA,1,NA,NA,graduated_college,small,English,male,NA,NA,You and your friend see the following:,1,1574699768442,NA,NA,1,NA,NA,congr,custom_main_text2,Your friend says: <br/><b>That pug is small.</b>
903,What do you think your friend meant?,NA,It is big relative to other,Mon Nov 25 2019 11:36:08 GMT-0500 (Eastern Standard Time),ref-utility/swordfish-5-6.png,23,NA,NA,NA,No,2,fish,jennifer,NA,1,yes,"Your friend runs far ahead of you, and you see him in the distance:",predicative,warmup/swordfish.png,22,swordfish,NA,1,NA,NA,graduated_college,big,English,male,NA,NA,You and your friend see the following:,2,1574699768442,NA,NA,1,NA,NA,congr,custom_main_text2,Your friend says: <br/><b>That swordfish is big.</b>
903,What do you think your friend meant?,NA,It is small relative to other,Mon Nov 25 2019 11:36:08 GMT-0500 (Eastern Standard Time),ref-utility/chihuahuas-5-6.png,23,NA,NA,NA,No,2,dogs1,jennifer,NA,1,yes,"Your friend runs far ahead of you, and you see him in the distance:",predicative,warmup/chihuahua.png,22,chihuahuas,NA,1,NA,NA,graduated_college,small,English,male,NA,NA,You and your friend see the following:,3,1574699768442,NA,NA,1,NA,NA,congr,custom_main_text2,Your friend says: <br/><b>That chihuahua is small.</b>
902,NA,puppy,NA,Mon Nov 25 2019 11:34:24 GMT-0500 (Eastern Standard Time),NA,23,warmup/great-dane.jpg,pug,This is a,No,1,dogs,jennifer,great dane,NA,yes,Please label the pictures below.,NA,NA,21,NA,NA,NA,warmup/pug.jpg,animals,some_college,NA,English,male,NA,dogs,NA,1,1574699664218,1,This is a,1,These are both,dog,NA,warmup1,NA
902,NA,puppy,NA,Mon Nov 25 2019 11:34:24 GMT-0500 (Eastern Standard Time),NA,23,warmup/great-dane.jpg,pug,This is a,No,1,dogs,jennifer,great dane,NA,yes,Please label the pictures below.,NA,NA,21,NA,NA,NA,warmup/pug.jpg,dogs,some_college,NA,English,male,NA,dogs,NA,1,1574699664218,2,This is a,1,These are both,dog,NA,warmup1,NA
902,NA,pug,NA,Mon Nov 25 2019 11:34:24 GMT-0500 (Eastern Standard Time),NA,23,warmup/great-dane.jpg,pug,This is a,No,1,dogs,jennifer,great dane,NA,yes,Please label the pictures below.,NA,NA,21,NA,NA,NA,warmup/pug.jpg,dogs,some_college,NA,English,male,NA,dogs,NA,1,1574699664218,3,This is a,1,These are both,great dane,NA,warmup1,NA
902,NA,redwood,NA,Mon Nov 25 2019 11:34:24 GMT-0500 (Eastern Standard Time),NA,23,warmup/bonsai.jpg,redwood or sequoia (choose one),This is a,No,1,trees,jennifer,bonsai,NA,yes,Please label the pictures below.,NA,NA,21,NA,NA,NA,warmup/sequoia.png,trees,some_college,NA,English,male,NA,trees,NA,2,1574699664218,1,This is a,1,These are both,bonsai,NA,warmup1,NA
902,NA,hummingbird,NA,Mon Nov 25 2019 11:34:24 GMT-0500 (Eastern Standard Time),NA,23,warmup/eagle.jpg,hummingbird,This is a,No,1,birds,jennifer,eagle,NA,yes,Please label the pictures below.,NA,NA,21,NA,NA,NA,warmup/colibri.jpg,birds,some_college,NA,English,male,NA,birds,NA,3,1574699664218,1,This is an,1,These are both,eagle,NA,warmup1,NA
902,What do you think your friend meant?,NA,It is big relative to other,Mon Nov 25 2019 11:34:24 GMT-0500 (Eastern Standard Time),ref-utility/great-danes-5-6.png,23,NA,NA,NA,No,1,dogs2,jennifer,NA,1,yes,"Your friend runs far ahead of you, and you see him in the distance:",predicative,warmup/great-dane.png,21,dogs,NA,1,NA,NA,some_college,big,English,male,NA,NA,You and your friend see the following:,1,1574699664218,NA,NA,1,NA,NA,congr,custom_main_text1,Your friend says: <br/><b>That great dane is big.</b>
902,What do you think your friend meant?,NA,It is small relative to other,Mon Nov 25 2019 11:34:24 GMT-0500 (Eastern Standard Time),ref-utility/hummingbirds-5-6.png,23,NA,NA,NA,No,1,birds,jennifer,NA,1,yes,"Your friend runs far ahead of you, and you see him in the distance:",predicative,warmup/hummingbird.png,21,birds,NA,1,NA,NA,some_college,small,English,male,NA,NA,You and your friend see the following:,2,1574699664218,NA,NA,1,NA,NA,congr,custom_main_text1,Your friend says: <br/><b>That hummingbird is small.</b>
902,What do you think your friend meant?,NA,It is big relative to other,Mon Nov 25 2019 11:34:24 GMT-0500 (Eastern Standard Time),ref-utility/redwoods-5-6.png,23,NA,NA,NA,No,1,trees,jennifer,NA,1,yes,"Your friend runs far ahead of you, and you see him in the distance:",predicative,warmup/redwood.png,21,trees,NA,1,NA,NA,some_college,big,English,male,NA,NA,You and your friend see the following:,3,1574699664218,NA,NA,1,NA,NA,congr,custom_main_text1,Your friend says: <br/><b>That redwood is big.</b>
902,NA,chihuahua,NA,Mon Nov 25 2019 11:34:24 GMT-0500 (Eastern Standard Time),NA,23,warmup/doberman_warmup.png,chihuahua,This is a,No,1,dogs,jennifer,doberman,NA,yes,Please label the pictures below.,NA,NA,21,NA,NA,NA,warmup/chihuahua.jpg,dogs,some_college,NA,English,male,NA,dogs,NA,1,1574699664218,1,This is a,1,These are both,rottweiler,NA,warmup2,NA
902,NA,chihuahua,NA,Mon Nov 25 2019 11:34:24 GMT-0500 (Eastern Standard Time),NA,23,warmup/doberman_warmup.png,chihuahua,This is a,No,1,dogs,jennifer,doberman,NA,yes,Please label the pictures below.,NA,NA,21,NA,NA,NA,warmup/chihuahua.jpg,dogs,some_college,NA,English,male,NA,dogs,NA,1,1574699664218,2,This is a,1,These are both,doberman,NA,warmup2,NA
902,NA,dandelion,NA,Mon Nov 25 2019 11:34:24 GMT-0500 (Eastern Standard Time),NA,23,warmup/sunflower_warmup.png,dandelion,This is a,No,1,flowers,jennifer,sunflower,NA,yes,Please label the pictures below.,NA,NA,21,NA,NA,NA,warmup/dandelion.jpg,plants,some_college,NA,English,male,NA,flowers,NA,2,1574699664218,1,This is a,1,These are both,sunflower,NA,warmup2,NA
902,NA,dandelion,NA,Mon Nov 25 2019 11:34:24 GMT-0500 (Eastern Standard Time),NA,23,warmup/sunflower_warmup.png,dandelion,This is a,No,1,flowers,jennifer,sunflower,NA,yes,Please label the pictures below.,NA,NA,21,NA,NA,NA,warmup/dandelion.jpg,flowers,some_college,NA,English,male,NA,flowers,NA,2,1574699664218,2,This is a,1,These are both,sunflower,NA,warmup2,NA
902,NA,swordfish,NA,Mon Nov 25 2019 11:34:24 GMT-0500 (Eastern Standard Time),NA,23,warmup/goldfish_warmup.png,swordfish,This is a,No,1,fish,jennifer,goldfish,NA,yes,Please label the pictures below.,NA,NA,21,NA,NA,NA,warmup/swordfish.jpg,fishes,some_college,NA,English,male,NA,fish,NA,3,1574699664218,1,This is a,1,These are both,goldfish,NA,warmup2,NA
902,NA,swordfish,NA,Mon Nov 25 2019 11:34:24 GMT-0500 (Eastern Standard Time),NA,23,warmup/goldfish_warmup.png,swordfish,This is a,No,1,fish,jennifer,goldfish,NA,yes,Please label the pictures below.,NA,NA,21,NA,NA,NA,warmup/swordfish.jpg,fish,some_college,NA,English,male,NA,fish,NA,3,1574699664218,2,This is a,1,These are both,goldfish,NA,warmup2,NA
902,What do you think your friend meant?,NA,It is small relative to other,Mon Nov 25 2019 11:34:24 GMT-0500 (Eastern Standard Time),ref-utility/chihuahuas-5-6.png,23,NA,NA,NA,No,1,dogs1,jennifer,NA,1,yes,"Your friend runs far ahead of you, and you see him in the distance:",predicative,warmup/chihuahua.png,21,dogs,NA,1,NA,NA,some_college,small,English,male,NA,NA,You and your friend see the following:,1,1574699664218,NA,NA,1,NA,NA,congr,custom_main_text2,Your friend says: <br/><b>That chihuahua is small.</b>
902,What do you think your friend meant?,NA,It is big relative to other,Mon Nov 25 2019 11:34:24 GMT-0500 (Eastern Standard Time),ref-utility/sunflowers-5-6.png,23,NA,NA,NA,No,1,flowers,jennifer,NA,1,yes,"Your friend runs far ahead of you, and you see him in the distance:",predicative,warmup/sunflower.png,21,flowers,NA,1,NA,NA,some_college,big,English,male,NA,NA,You and your friend see the following:,2,1574699664218,NA,NA,1,NA,NA,congr,custom_main_text2,Your friend says: <br/><b>That sunflower is big.</b>
902,What do you think your friend meant?,NA,It is small relative to other,Mon Nov 25 2019 11:34:24 GMT-0500 (Eastern Standard Time),ref-utility/goldfish-5-6.png,23,NA,NA,NA,No,1,fish,jennifer,NA,1,yes,"Your friend runs far ahead of you, and you see him in the distance:",predicative,warmup/goldfish.png,21,goldfish,NA,1,NA,NA,some_college,small,English,male,NA,NA,You and your friend see the following:,3,1574699664218,NA,NA,1,NA,NA,congr,custom_main_text2,Your friend says: <br/><b>That goldfish is small.</b>
901,NA,short dog,NA,Mon Nov 25 2019 11:20:29 GMT-0500 (Eastern Standard Time),NA,23,warmup/doberman_warmup.png,chihuahua,This is a,NA,1,dogs,Barbara,doberman,NA,yes,Please label the pictures below.,NA,NA,34,NA,NA,NA,warmup/chihuahua.jpg,dog,graduated_college,NA,English,male,NA,dogs,NA,1,1574698829478,1,This is a,2,These are both,tall dog,NA,warmup1,NA
901,NA,short dog,NA,Mon Nov 25 2019 11:20:29 GMT-0500 (Eastern Standard Time),NA,23,warmup/doberman_warmup.png,chihuahua,This is a,NA,1,dogs,Barbara,doberman,NA,yes,Please label the pictures below.,NA,NA,34,NA,NA,NA,warmup/chihuahua.jpg,dogs,graduated_college,NA,English,male,NA,dogs,NA,1,1574698829478,2,This is a,2,These are both,tall dog,NA,warmup1,NA
901,NA,short dog,NA,Mon Nov 25 2019 11:20:29 GMT-0500 (Eastern Standard Time),NA,23,warmup/doberman_warmup.png,chihuahua,This is a,NA,1,dogs,Barbara,doberman,NA,yes,Please label the pictures below.,NA,NA,34,NA,NA,NA,warmup/chihuahua.jpg,dogs,graduated_college,NA,English,male,NA,dogs,NA,1,1574698829478,3,This is a,2,These are both,tall dog,NA,warmup1,NA
901,NA,young dog,NA,Mon Nov 25 2019 11:20:29 GMT-0500 (Eastern Standard Time),NA,23,warmup/doberman_warmup.png,chihuahua,This is a,NA,1,dogs,Barbara,doberman,NA,yes,Please label the pictures below.,NA,NA,34,NA,NA,NA,warmup/chihuahua.jpg,dogs,graduated_college,NA,English,male,NA,dogs,NA,1,1574698829478,4,This is a,2,These are both,old dog,NA,warmup1,NA
901,NA,young dog,NA,Mon Nov 25 2019 11:20:29 GMT-0500 (Eastern Standard Time),NA,23,warmup/doberman_warmup.png,chihuahua,This is a,NA,1,dogs,Barbara,doberman,NA,yes,Please label the pictures below.,NA,NA,34,NA,NA,NA,warmup/chihuahua.jpg,dogs,graduated_college,NA,English,male,NA,dogs,NA,1,1574698829478,5,This is a,2,These are both,old dog,NA,warmup1,NA
901,NA,young dog,NA,Mon Nov 25 2019 11:20:29 GMT-0500 (Eastern Standard Time),NA,23,warmup/doberman_warmup.png,chihuahua,This is a,NA,1,dogs,Barbara,doberman,NA,yes,Please label the pictures below.,NA,NA,34,NA,NA,NA,warmup/chihuahua.jpg,dogs,graduated_college,NA,English,male,NA,dogs,NA,1,1574698829478,6,This is a,2,These are both,old dog,NA,warmup1,NA
901,NA,young dog,NA,Mon Nov 25 2019 11:20:29 GMT-0500 (Eastern Standard Time),NA,23,warmup/doberman_warmup.png,chihuahua,This is a,NA,1,dogs,Barbara,doberman,NA,yes,Please label the pictures below.,NA,NA,34,NA,NA,NA,warmup/chihuahua.jpg,dog,graduated_college,NA,English,male,NA,dogs,NA,1,1574698829478,7,This is a,2,These are both,old dog,NA,warmup1,NA
901,NA,chihuahua,NA,Mon Nov 25 2019 11:20:29 GMT-0500 (Eastern Standard Time),NA,23,warmup/doberman_warmup.png,chihuahua,This is a,NA,1,dogs,Barbara,doberman,NA,yes,Please label the pictures below.,NA,NA,34,NA,NA,NA,warmup/chihuahua.jpg,dogs,graduated_college,NA,English,male,NA,dogs,NA,1,1574698829478,8,This is a,2,These are both,doberman,NA,warmup1,NA
901,NA,pitbull,NA,Mon Nov 25 2019 11:20:29 GMT-0500 (Eastern Standard Time),NA,23,warmup/great-dane.jpg,pug,This is a,NA,1,dogs,Barbara,great dane,NA,yes,Please label the pictures below.,NA,NA,34,NA,NA,NA,warmup/pug.jpg,dog,graduated_college,NA,English,male,NA,dogs,NA,2,1574698829478,1,This is a,2,These are both,dog,NA,warmup1,NA
901,NA,pug,NA,Mon Nov 25 2019 11:20:29 GMT-0500 (Eastern Standard Time),NA,23,warmup/great-dane.jpg,pug,This is a,NA,1,dogs,Barbara,great dane,NA,yes,Please label the pictures below.,NA,NA,34,NA,NA,NA,warmup/pug.jpg,dogs,graduated_college,NA,English,male,NA,dogs,NA,2,1574698829478,2,This is a,2,These are both,great dane,NA,warmup1,NA
901,NA,tree,NA,Mon Nov 25 2019 11:20:29 GMT-0500 (Eastern Standard Time),NA,23,warmup/bonsai.jpg,redwood or sequoia (choose one),This is a,NA,1,trees,Barbara,bonsai,NA,yes,Please label the pictures below.,NA,NA,34,NA,NA,NA,warmup/sequoia.png,plants,graduated_college,NA,English,male,NA,trees,NA,3,1574698829478,1,This is a,2,These are both,flower,NA,warmup1,NA
901,NA,redwood,NA,Mon Nov 25 2019 11:20:29 GMT-0500 (Eastern Standard Time),NA,23,warmup/bonsai.jpg,redwood or sequoia (choose one),This is a,NA,1,trees,Barbara,bonsai,NA,yes,Please label the pictures below.,NA,NA,34,NA,NA,NA,warmup/sequoia.png,trees,graduated_college,NA,English,male,NA,trees,NA,3,1574698829478,2,This is a,2,These are both,bonsai,NA,warmup1,NA
901,What do you think your friend meant?,NA,It is small relative to other,Mon Nov 25 2019 11:20:29 GMT-0500 (Eastern Standard Time),ref-utility/chihuahuas-5-6.png,23,NA,NA,NA,NA,1,dogs1,Barbara,NA,1,yes,"Your friend runs far ahead of you, and you see him in the distance:",predicative,warmup/chihuahua.png,34,dogs,NA,1,NA,NA,graduated_college,small,English,male,NA,NA,You and your friend see the following:,1,1574698829478,NA,NA,2,NA,NA,congr,custom_main_text1,Your friend says: <br/><b>That chihuahua is small.</b>
901,What do you think your friend meant?,NA,It is small relative to other,Mon Nov 25 2019 11:20:29 GMT-0500 (Eastern Standard Time),ref-utility/pugs-5-6.png,23,NA,NA,NA,NA,1,dogs2,Barbara,NA,1,yes,"Your friend runs far ahead of you, and you see him in the distance:",predicative,warmup/pug.png,34,dogs,NA,1,NA,NA,graduated_college,small,English,male,NA,NA,You and your friend see the following:,2,1574698829478,NA,NA,2,NA,NA,congr,custom_main_text1,Your friend says: <br/><b>That pug is small.</b>
901,What do you think your friend meant?,NA,It is big relative to other,Mon Nov 25 2019 11:20:29 GMT-0500 (Eastern Standard Time),ref-utility/redwoods-5-6.png,23,NA,NA,NA,NA,1,trees,Barbara,NA,1,yes,"Your friend runs far ahead of you, and you see him in the distance:",predicative,warmup/redwood.png,34,trees,NA,1,NA,NA,graduated_college,big,English,male,NA,NA,You and your friend see the following:,3,1574698829478,NA,NA,2,NA,NA,congr,custom_main_text1,Your friend says: <br/><b>That redwood is big.</b>
901,NA,flower,NA,Mon Nov 25 2019 11:20:29 GMT-0500 (Eastern Standard Time),NA,23,warmup/sunflower_warmup.png,dandelion,This is a,NA,1,flowers,Barbara,sunflower,NA,yes,Please label the pictures below.,NA,NA,34,NA,NA,NA,warmup/dandelion.jpg,flower,graduated_college,NA,English,male,NA,flowers,NA,1,1574698829478,1,This is a,2,These are both,sunflower,NA,warmup2,NA
901,NA,dandelion,NA,Mon Nov 25 2019 11:20:29 GMT-0500 (Eastern Standard Time),NA,23,warmup/sunflower_warmup.png,dandelion,This is a,NA,1,flowers,Barbara,sunflower,NA,yes,Please label the pictures below.,NA,NA,34,NA,NA,NA,warmup/dandelion.jpg,flowers,graduated_college,NA,English,male,NA,flowers,NA,1,1574698829478,2,This is a,2,These are both,sunflower,NA,warmup2,NA
901,NA,shark,NA,Mon Nov 25 2019 11:20:29 GMT-0500 (Eastern Standard Time),NA,23,warmup/goldfish_warmup.png,swordfish,This is a,NA,1,fish,Barbara,goldfish,NA,yes,Please label the pictures below.,NA,NA,34,NA,NA,NA,warmup/swordfish.jpg,fishes,graduated_college,NA,English,male,NA,fish,NA,2,1574698829478,1,This is a,2,These are both,fish,NA,warmup2,NA
901,NA,swordfish,NA,Mon Nov 25 2019 11:20:29 GMT-0500 (Eastern Standard Time),NA,23,warmup/goldfish_warmup.png,swordfish,This is a,NA,1,fish,Barbara,goldfish,NA,yes,Please label the pictures below.,NA,NA,34,NA,NA,NA,warmup/swordfish.jpg,fish,graduated_college,NA,English,male,NA,fish,NA,2,1574698829478,2,This is a,2,These are both,goldfish,NA,warmup2,NA
901,NA,bird,NA,Mon Nov 25 2019 11:20:29 GMT-0500 (Eastern Standard Time),NA,23,warmup/eagle.jpg,hummingbird,This is a,NA,1,birds,Barbara,eagle,NA,yes,Please label the pictures below.,NA,NA,34,NA,NA,NA,warmup/colibri.jpg,birds,graduated_college,NA,English,male,NA,birds,NA,3,1574698829478,1,This is an,2,These are both,eagle,NA,warmup2,NA
901,NA,hummingbird,NA,Mon Nov 25 2019 11:20:29 GMT-0500 (Eastern Standard Time),NA,23,warmup/eagle.jpg,hummingbird,This is a,NA,1,birds,Barbara,eagle,NA,yes,Please label the pictures below.,NA,NA,34,NA,NA,NA,warmup/colibri.jpg,birds,graduated_college,NA,English,male,NA,birds,NA,3,1574698829478,2,This is an,2,These are both,eagle,NA,warmup2,NA
901,What do you think your friend meant?,NA,It is small relative to other,Mon Nov 25 2019 11:20:29 GMT-0500 (Eastern Standard Time),ref-utility/hummingbirds-5-6.png,23,NA,NA,NA,NA,1,birds,Barbara,NA,1,yes,"Your friend runs far ahead of you, and you see him in the distance:",predicative,warmup/hummingbird.png,34,birds,NA,1,NA,NA,graduated_college,small,English,male,NA,NA,You and your friend see the following:,1,1574698829478,NA,NA,2,NA,NA,congr,custom_main_text2,Your friend says: <br/><b>That hummingbird is small.</b>
901,What do you think your friend meant?,NA,It is big relative to other,Mon Nov 25 2019 11:20:29 GMT-0500 (Eastern Standard Time),ref-utility/swordfish-5-6.png,23,NA,NA,NA,NA,1,fish,Barbara,NA,1,yes,"Your friend runs far ahead of you, and you see him in the distance:",predicative,warmup/swordfish.png,34,fish,NA,1,NA,NA,graduated_college,big,English,male,NA,NA,You and your friend see the following:,2,1574698829478,NA,NA,2,NA,NA,congr,custom_main_text2,Your friend says: <br/><b>That swordfish is big.</b>
901,What do you think your friend meant?,NA,It is big relative to other,Mon Nov 25 2019 11:20:29 GMT-0500 (Eastern Standard Time),ref-utility/sunflowers-5-6.png,23,NA,NA,NA,NA,1,flowers,Barbara,NA,1,yes,"Your friend runs far ahead of you, and you see him in the distance:",predicative,warmup/sunflower.png,34,flower,NA,1,NA,NA,graduated_college,big,English,male,NA,NA,You and your friend see the following:,3,1574698829478,NA,NA,2,NA,NA,congr,custom_main_text2,Your friend says: <br/><b>That sunflower is big.</b>
898,NA,swordfish,NA,Mon Nov 25 2019 10:19:19 GMT-0600 (Central Standard Time),NA,23,warmup/goldfish_warmup.png,swordfish,This is a,None,1,fish,barbara,goldfish,NA,yes,Please label the pictures below.,NA,NA,37,NA,None.,NA,warmup/swordfish.jpg,fish,graduated_college,NA,English,male,NA,fish,NA,1,1574698759493,1,This is a,2,These are both,goldfish,NA,warmup1,NA
898,NA,chihuahua dog,NA,Mon Nov 25 2019 10:19:19 GMT-0600 (Central Standard Time),NA,23,warmup/doberman_warmup.png,chihuahua,This is a,None,1,dogs,barbara,doberman,NA,yes,Please label the pictures below.,NA,NA,37,NA,None.,NA,warmup/chihuahua.jpg,dogs,graduated_college,NA,English,male,NA,dogs,NA,2,1574698759493,1,This is a,2,These are both,doberman dog,NA,warmup1,NA
898,NA,chihuahua,NA,Mon Nov 25 2019 10:19:19 GMT-0600 (Central Standard Time),NA,23,warmup/doberman_warmup.png,chihuahua,This is a,None,1,dogs,barbara,doberman,NA,yes,Please label the pictures below.,NA,NA,37,NA,None.,NA,warmup/chihuahua.jpg,dogs,graduated_college,NA,English,male,NA,dogs,NA,2,1574698759493,2,This is a,2,These are both,doberman,NA,warmup1,NA
898,NA,oak tree,NA,Mon Nov 25 2019 10:19:19 GMT-0600 (Central Standard Time),NA,23,warmup/bonsai.jpg,redwood or sequoia (choose one),This is a,None,1,trees,barbara,bonsai,NA,yes,Please label the pictures below.,NA,NA,37,NA,None.,NA,warmup/sequoia.png,trees,graduated_college,NA,English,male,NA,trees,NA,3,1574698759493,1,This is a,2,These are both,bonanza,NA,warmup1,NA
898,NA,redwood,NA,Mon Nov 25 2019 10:19:19 GMT-0600 (Central Standard Time),NA,23,warmup/bonsai.jpg,redwood or sequoia (choose one),This is a,None,1,trees,barbara,bonsai,NA,yes,Please label the pictures below.,NA,NA,37,NA,None.,NA,warmup/sequoia.png,trees,graduated_college,NA,English,male,NA,trees,NA,3,1574698759493,2,This is a,2,These are both,bonsai,NA,warmup1,NA
898,What do you think your friend meant?,NA,It is small relative to other,Mon Nov 25 2019 10:19:19 GMT-0600 (Central Standard Time),ref-utility/chihuahuas-5-6.png,23,NA,NA,NA,None,1,dogs1,barbara,NA,1,yes,"Your friend runs far ahead of you, and you see him in the distance:",predicative,warmup/chihuahua.png,37,dogs,None.,1,NA,NA,graduated_college,small,English,male,NA,NA,You and your friend see the following:,1,1574698759493,NA,NA,2,NA,NA,congr,custom_main_text1,Your friend says: <br/><b>That chihuahua is small.</b>
898,What do you think your friend meant?,NA,It is small relative to other,Mon Nov 25 2019 10:19:19 GMT-0600 (Central Standard Time),ref-utility/bonsais-5-6.png,23,NA,NA,NA,None,1,trees,barbara,NA,1,yes,"Your friend runs far ahead of you, and you see him in the distance:",predicative,warmup/bonsai.png,37,trees,None.,1,NA,NA,graduated_college,small,English,male,NA,NA,You and your friend see the following:,2,1574698759493,NA,NA,2,NA,NA,congr,custom_main_text1,Your friend says: <br/><b>That bonsai is small.</b>
898,What do you think your friend meant?,NA,It is big relative to other,Mon Nov 25 2019 10:19:19 GMT-0600 (Central Standard Time),ref-utility/swordfish-5-6.png,23,NA,NA,NA,None,1,fish,barbara,NA,1,yes,"Your friend runs far ahead of you, and you see him in the distance:",predicative,warmup/swordfish.png,37,fish,None.,1,NA,NA,graduated_college,big,English,male,NA,NA,You and your friend see the following:,3,1574698759493,NA,NA,2,NA,NA,congr,custom_main_text1,Your friend says: <br/><b>That swordfish is big.</b>
898,NA,dandelion weed,NA,Mon Nov 25 2019 10:19:19 GMT-0600 (Central Standard Time),NA,23,warmup/sunflower_warmup.png,dandelion,This is a,None,1,flowers,barbara,sunflower,NA,yes,Please label the pictures below.,NA,NA,37,NA,None.,NA,warmup/dandelion.jpg,flower,graduated_college,NA,English,male,NA,flowers,NA,1,1574698759493,1,This is a,2,These are both,sunflower plant,NA,warmup2,NA
898,NA,dandelion,NA,Mon Nov 25 2019 10:19:19 GMT-0600 (Central Standard Time),NA,23,warmup/sunflower_warmup.png,dandelion,This is a,None,1,flowers,barbara,sunflower,NA,yes,Please label the pictures below.,NA,NA,37,NA,None.,NA,warmup/dandelion.jpg,flowers,graduated_college,NA,English,male,NA,flowers,NA,1,1574698759493,2,This is a,2,These are both,sunflower,NA,warmup2,NA
898,NA,pug,NA,Mon Nov 25 2019 10:19:19 GMT-0600 (Central Standard Time),NA,23,warmup/great-dane.jpg,pug,This is a,None,1,dogs,barbara,great dane,NA,yes,Please label the pictures below.,NA,NA,37,NA,None.,NA,warmup/pug.jpg,dogs,graduated_college,NA,English,male,NA,dogs,NA,2,1574698759493,1,This is a,2,These are both,greyhound,NA,warmup2,NA
898,NA,pug,NA,Mon Nov 25 2019 10:19:19 GMT-0600 (Central Standard Time),NA,23,warmup/great-dane.jpg,pug,This is a,None,1,dogs,barbara,great dane,NA,yes,Please label the pictures below.,NA,NA,37,NA,None.,NA,warmup/pug.jpg,dogs,graduated_college,NA,English,male,NA,dogs,NA,2,1574698759493,2,This is a,2,These are both,great dane,NA,warmup2,NA
898,NA,humming bird,NA,Mon Nov 25 2019 10:19:19 GMT-0600 (Central Standard Time),NA,23,warmup/eagle.jpg,hummingbird,This is a,None,1,birds,barbara,eagle,NA,yes,Please label the pictures below.,NA,NA,37,NA,None.,NA,warmup/colibri.jpg,birds,graduated_college,NA,English,male,NA,birds,NA,3,1574698759493,1,This is an,2,These are both,eagle,NA,warmup2,NA
898,NA,hummingbird,NA,Mon Nov 25 2019 10:19:19 GMT-0600 (Central Standard Time),NA,23,warmup/eagle.jpg,hummingbird,This is a,None,1,birds,barbara,eagle,NA,yes,Please label the pictures below.,NA,NA,37,NA,None.,NA,warmup/colibri.jpg,birds,graduated_college,NA,English,male,NA,birds,NA,3,1574698759493,2,This is an,2,These are both,eagle,NA,warmup2,NA
898,What do you think your friend meant?,NA,It is small relative to other,Mon Nov 25 2019 10:19:19 GMT-0600 (Central Standard Time),ref-utility/hummingbirds-5-6.png,23,NA,NA,NA,None,1,birds,barbara,NA,1,yes,"Your friend runs far ahead of you, and you see him in the distance:",predicative,warmup/hummingbird.png,37,birds,None.,1,NA,NA,graduated_college,small,English,male,NA,NA,You and your friend see the following:,1,1574698759493,NA,NA,2,NA,NA,congr,custom_main_text2,Your friend says: <br/><b>That hummingbird is small.</b>
898,What do you think your friend meant?,NA,It is big relative to other,Mon Nov 25 2019 10:19:19 GMT-0600 (Central Standard Time),ref-utility/sunflowers-5-6.png,23,NA,NA,NA,None,1,flowers,barbara,NA,1,yes,"Your friend runs far ahead of you, and you see him in the distance:",predicative,warmup/sunflower.png,37,flowers,None.,1,NA,NA,graduated_college,big,English,male,NA,NA,You and your friend see the following:,2,1574698759493,NA,NA,2,NA,NA,congr,custom_main_text2,Your friend says: <br/><b>That sunflower is big.</b>
898,What do you think your friend meant?,NA,It is big relative to other,Mon Nov 25 2019 10:19:19 GMT-0600 (Central Standard Time),ref-utility/great-danes-5-6.png,23,NA,NA,NA,None,1,dogs2,barbara,NA,1,yes,"Your friend runs far ahead of you, and you see him in the distance:",predicative,warmup/great-dane.png,37,dogs,None.,1,NA,NA,graduated_college,big,English,male,NA,NA,You and your friend see the following:,3,1574698759493,NA,NA,2,NA,NA,congr,custom_main_text2,Your friend says: <br/><b>That great dane is big.</b>
897,NA,tree,NA,Mon Nov 25 2019 10:21:47 GMT-0600 (Central Standard Time),NA,23,warmup/bonsai.jpg,redwood or sequoia (choose one),This is a,NA,1,trees,Mary,bonsai,NA,NA,Please label the pictures below.,NA,NA,30,NA,NA,NA,warmup/sequoia.png,trees,higher_degree,NA,English,male,NA,trees,NA,1,1574698907554,1,This is a,1,These are both,tree,NA,warmup1,NA
897,NA,redwood,NA,Mon Nov 25 2019 10:21:47 GMT-0600 (Central Standard Time),NA,23,warmup/bonsai.jpg,redwood or sequoia (choose one),This is a,NA,1,trees,Mary,bonsai,NA,NA,Please label the pictures below.,NA,NA,30,NA,NA,NA,warmup/sequoia.png,trees,higher_degree,NA,English,male,NA,trees,NA,1,1574698907554,2,This is a,1,These are both,bonsai,NA,warmup1,NA
897,NA,bulldog,NA,Mon Nov 25 2019 10:21:47 GMT-0600 (Central Standard Time),NA,23,warmup/great-dane.jpg,pug,This is a,NA,1,dogs,Mary,great dane,NA,NA,Please label the pictures below.,NA,NA,30,NA,NA,NA,warmup/pug.jpg,dogs,higher_degree,NA,English,male,NA,dogs,NA,2,1574698907554,1,This is a,1,These are both,great dane,NA,warmup1,NA
897,NA,pug,NA,Mon Nov 25 2019 10:21:47 GMT-0600 (Central Standard Time),NA,23,warmup/great-dane.jpg,pug,This is a,NA,1,dogs,Mary,great dane,NA,NA,Please label the pictures below.,NA,NA,30,NA,NA,NA,warmup/pug.jpg,dogs,higher_degree,NA,English,male,NA,dogs,NA,2,1574698907554,2,This is a,1,These are both,great dane,NA,warmup1,NA
897,NA,dandelion,NA,Mon Nov 25 2019 10:21:47 GMT-0600 (Central Standard Time),NA,23,warmup/sunflower_warmup.png,dandelion,This is a,NA,1,flowers,Mary,sunflower,NA,NA,Please label the pictures below.,NA,NA,30,NA,NA,NA,warmup/dandelion.jpg,plant,higher_degree,NA,English,male,NA,flowers,NA,3,1574698907554,1,This is a,1,These are both,sunflower,NA,warmup1,NA
897,NA,dandelion,NA,Mon Nov 25 2019 10:21:47 GMT-0600 (Central Standard Time),NA,23,warmup/sunflower_warmup.png,dandelion,This is a,NA,1,flowers,Mary,sunflower,NA,NA,Please label the pictures below.,NA,NA,30,NA,NA,NA,warmup/dandelion.jpg,flowers,higher_degree,NA,English,male,NA,flowers,NA,3,1574698907554,2,This is a,1,These are both,sunflower,NA,warmup1,NA
897,What do you think your friend meant?,NA,It is big relative to other,Mon Nov 25 2019 10:21:47 GMT-0600 (Central Standard Time),ref-utility/great-danes-5-6.png,23,NA,NA,NA,NA,1,dogs2,Mary,NA,1,NA,"Your friend runs far ahead of you, and you see him in the distance:",predicative,warmup/great-dane.png,30,dogs,NA,1,NA,NA,higher_degree,big,English,male,NA,NA,You and your friend see the following:,1,1574698907554,NA,NA,1,NA,NA,congr,custom_main_text1,Your friend says: <br/><b>That great dane is big.</b>
897,What do you think your friend meant?,NA,It is small relative to other,Mon Nov 25 2019 10:21:47 GMT-0600 (Central Standard Time),ref-utility/bonsais-5-6.png,23,NA,NA,NA,NA,1,trees,Mary,NA,1,NA,"Your friend runs far ahead of you, and you see him in the distance:",predicative,warmup/bonsai.png,30,trees,NA,1,NA,NA,higher_degree,small,English,male,NA,NA,You and your friend see the following:,2,1574698907554,NA,NA,1,NA,NA,congr,custom_main_text1,Your friend says: <br/><b>That bonsai is small.</b>
897,What do you think your friend meant?,NA,It is small relative to other,Mon Nov 25 2019 10:21:47 GMT-0600 (Central Standard Time),ref-utility/dandelions-5-6.png,23,NA,NA,NA,NA,1,flowers,Mary,NA,1,NA,"Your friend runs far ahead of you, and you see him in the distance:",predicative,warmup/dandelion.png,30,dandelions,NA,1,NA,NA,higher_degree,small,English,male,NA,NA,You and your friend see the following:,3,1574698907554,NA,NA,1,NA,NA,congr,custom_main_text1,Your friend says: <br/><b>That dandelion is small.</b>
897,NA,hummingbird,NA,Mon Nov 25 2019 10:21:47 GMT-0600 (Central Standard Time),NA,23,warmup/eagle.jpg,hummingbird,This is a,NA,1,birds,Mary,eagle,NA,NA,Please label the pictures below.,NA,NA,30,NA,NA,NA,warmup/colibri.jpg,birds,higher_degree,NA,English,male,NA,birds,NA,1,1574698907554,1,This is an,1,These are both,eagle,NA,warmup2,NA
897,NA,chihuahua,NA,Mon Nov 25 2019 10:21:47 GMT-0600 (Central Standard Time),NA,23,warmup/doberman_warmup.png,chihuahua,This is a,NA,1,dogs,Mary,doberman,NA,NA,Please label the pictures below.,NA,NA,30,NA,NA,NA,warmup/chihuahua.jpg,dogs,higher_degree,NA,English,male,NA,dogs,NA,2,1574698907554,1,This is a,1,These are both,pincer,NA,warmup2,NA
897,NA,chihuahua,NA,Mon Nov 25 2019 10:21:47 GMT-0600 (Central Standard Time),NA,23,warmup/doberman_warmup.png,chihuahua,This is a,NA,1,dogs,Mary,doberman,NA,NA,Please label the pictures below.,NA,NA,30,NA,NA,NA,warmup/chihuahua.jpg,dogs,higher_degree,NA,English,male,NA,dogs,NA,2,1574698907554,2,This is a,1,These are both,doberman,NA,warmup2,NA
897,NA,swordfish,NA,Mon Nov 25 2019 10:21:47 GMT-0600 (Central Standard Time),NA,23,warmup/goldfish_warmup.png,swordfish,This is a,NA,1,fish,Mary,goldfish,NA,NA,Please label the pictures below.,NA,NA,30,NA,NA,NA,warmup/swordfish.jpg,fish,higher_degree,NA,English,male,NA,fish,NA,3,1574698907554,1,This is a,1,These are both,goldfish,NA,warmup2,NA
897,What do you think your friend meant?,NA,It is small relative to other,Mon Nov 25 2019 10:21:47 GMT-0600 (Central Standard Time),ref-utility/goldfish-5-6.png,23,NA,NA,NA,NA,1,fish,Mary,NA,1,NA,"Your friend runs far ahead of you, and you see him in the distance:",predicative,warmup/goldfish.png,30,fish,NA,1,NA,NA,higher_degree,small,English,male,NA,NA,You and your friend see the following:,1,1574698907554,NA,NA,1,NA,NA,congr,custom_main_text2,Your friend says: <br/><b>That goldfish is small.</b>
897,What do you think your friend meant?,NA,It is big relative to other,Mon Nov 25 2019 10:21:47 GMT-0600 (Central Standard Time),ref-utility/eagles-5-6.png,23,NA,NA,NA,NA,1,birds,Mary,NA,1,NA,"Your friend runs far ahead of you, and you see him in the distance:",predicative,warmup/eagle.png,30,birds,NA,1,NA,NA,higher_degree,big,English,male,NA,NA,You and your friend see the following:,2,1574698907554,NA,NA,1,NA,NA,congr,custom_main_text2,Your friend says: <br/><b>That eagle is big.</b>
897,What do you think your friend meant?,NA,It is big relative to other,Mon Nov 25 2019 10:21:47 GMT-0600 (Central Standard Time),ref-utility/doberman-5-6.png,23,NA,NA,NA,NA,1,dogs1,Mary,NA,1,NA,"Your friend runs far ahead of you, and you see him in the distance:",predicative,warmup/doberman.png,30,dogs,NA,1,NA,NA,higher_degree,big,English,male,NA,NA,You and your friend see the following:,3,1574698907554,NA,NA,1,NA,NA,congr,custom_main_text2,Your friend says: <br/><b>That doberman is big.</b>
895,NA,swordfish,NA,Mon Nov 25 2019 10:13:53 GMT-0600 (Central Standard Time),NA,23,warmup/goldfish_warmup.png,swordfish,This is a,none,2,fish,mary,goldfish,NA,yes,Please label the pictures below.,NA,NA,59,NA,none,NA,warmup/swordfish.jpg,fish,some_college,NA,english,male,NA,fish,NA,1,1574698433228,1,This is a,1,These are both,goldfish,NA,warmup1,NA
895,NA,dandelion,NA,Mon Nov 25 2019 10:13:53 GMT-0600 (Central Standard Time),NA,23,warmup/sunflower_warmup.png,dandelion,This is a,none,2,flowers,mary,sunflower,NA,yes,Please label the pictures below.,NA,NA,59,NA,none,NA,warmup/dandelion.jpg,plants,some_college,NA,english,male,NA,flowers,NA,2,1574698433228,1,This is a,1,These are both,sunflower,NA,warmup1,NA
895,NA,dandelion,NA,Mon Nov 25 2019 10:13:53 GMT-0600 (Central Standard Time),NA,23,warmup/sunflower_warmup.png,dandelion,This is a,none,2,flowers,mary,sunflower,NA,yes,Please label the pictures below.,NA,NA,59,NA,none,NA,warmup/dandelion.jpg,flowers,some_college,NA,english,male,NA,flowers,NA,2,1574698433228,2,This is a,1,These are both,sunflower,NA,warmup1,NA
895,NA,little dog,NA,Mon Nov 25 2019 10:13:53 GMT-0600 (Central Standard Time),NA,23,warmup/great-dane.jpg,pug,This is a,none,2,dogs,mary,great dane,NA,yes,Please label the pictures below.,NA,NA,59,NA,none,NA,warmup/pug.jpg,dogs,some_college,NA,english,male,NA,dogs,NA,3,1574698433228,1,This is a,1,These are both,big dog,NA,warmup1,NA
895,NA,lpug dog,NA,Mon Nov 25 2019 10:13:53 GMT-0600 (Central Standard Time),NA,23,warmup/great-dane.jpg,pug,This is a,none,2,dogs,mary,great dane,NA,yes,Please label the pictures below.,NA,NA,59,NA,none,NA,warmup/pug.jpg,dogs,some_college,NA,english,male,NA,dogs,NA,3,1574698433228,2,This is a,1,These are both,great dane,NA,warmup1,NA
895,NA,lpug dog,NA,Mon Nov 25 2019 10:13:53 GMT-0600 (Central Standard Time),NA,23,warmup/great-dane.jpg,pug,This is a,none,2,dogs,mary,great dane,NA,yes,Please label the pictures below.,NA,NA,59,NA,none,NA,warmup/pug.jpg,dogs,some_college,NA,english,male,NA,dogs,NA,3,1574698433228,3,This is a,1,These are both,great dane,NA,warmup1,NA
895,NA,pug,NA,Mon Nov 25 2019 10:13:53 GMT-0600 (Central Standard Time),NA,23,warmup/great-dane.jpg,pug,This is a,none,2,dogs,mary,great dane,NA,yes,Please label the pictures below.,NA,NA,59,NA,none,NA,warmup/pug.jpg,dogs,some_college,NA,english,male,NA,dogs,NA,3,1574698433228,4,This is a,1,These are both,great dane,NA,warmup1,NA
895,What do you think your friend meant?,NA,It is big relative to other,Mon Nov 25 2019 10:13:53 GMT-0600 (Central Standard Time),ref-utility/great-danes-5-6.png,23,NA,NA,NA,none,2,dogs2,mary,NA,1,yes,"Your friend runs far ahead of you, and you see him in the distance:",predicative,warmup/great-dane.png,59,dogs,none,1,NA,NA,some_college,big,english,male,NA,NA,You and your friend see the following:,1,1574698433228,NA,NA,1,NA,NA,congr,custom_main_text1,Your friend says: <br/><b>That great dane is big.</b>
895,What do you think your friend meant?,NA,It is big relative to other,Mon Nov 25 2019 10:13:53 GMT-0600 (Central Standard Time),ref-utility/sunflowers-5-6.png,23,NA,NA,NA,none,2,flowers,mary,NA,1,yes,"Your friend runs far ahead of you, and you see him in the distance:",predicative,warmup/sunflower.png,59,flowers,none,1,NA,NA,some_college,big,english,male,NA,NA,You and your friend see the following:,2,1574698433228,NA,NA,1,NA,NA,congr,custom_main_text1,Your friend says: <br/><b>That sunflower is big.</b>
895,What do you think your friend meant?,NA,It is small relative to other,Mon Nov 25 2019 10:13:53 GMT-0600 (Central Standard Time),ref-utility/goldfish-5-6.png,23,NA,NA,NA,none,2,fish,mary,NA,1,yes,"Your friend runs far ahead of you, and you see him in the distance:",predicative,warmup/goldfish.png,59,fish,none,1,NA,NA,some_college,small,english,male,NA,NA,You and your friend see the following:,3,1574698433228,NA,NA,1,NA,NA,congr,custom_main_text1,Your friend says: <br/><b>That goldfish is small.</b>
895,NA,hummingbird,NA,Mon Nov 25 2019 10:13:53 GMT-0600 (Central Standard Time),NA,23,warmup/eagle.jpg,hummingbird,This is a,none,2,birds,mary,eagle,NA,yes,Please label the pictures below.,NA,NA,59,NA,none,NA,warmup/colibri.jpg,birds,some_college,NA,english,male,NA,birds,NA,1,1574698433228,1,This is an,1,These are both,bald eagle,NA,warmup2,NA
895,NA,hummingbird,NA,Mon Nov 25 2019 10:13:53 GMT-0600 (Central Standard Time),NA,23,warmup/eagle.jpg,hummingbird,This is a,none,2,birds,mary,eagle,NA,yes,Please label the pictures below.,NA,NA,59,NA,none,NA,warmup/colibri.jpg,birds,some_college,NA,english,male,NA,birds,NA,1,1574698433228,2,This is an,1,These are both,eagle,NA,warmup2,NA
895,NA,chiw,NA,Mon Nov 25 2019 10:13:53 GMT-0600 (Central Standard Time),NA,23,warmup/doberman_warmup.png,chihuahua,This is a,none,2,dogs,mary,doberman,NA,yes,Please label the pictures below.,NA,NA,59,NA,none,NA,warmup/chihuahua.jpg,dogs,some_college,NA,english,male,NA,dogs,NA,2,1574698433228,1,This is a,1,These are both,doberman,NA,warmup2,NA
895,NA,chihuahua,NA,Mon Nov 25 2019 10:13:53 GMT-0600 (Central Standard Time),NA,23,warmup/doberman_warmup.png,chihuahua,This is a,none,2,dogs,mary,doberman,NA,yes,Please label the pictures below.,NA,NA,59,NA,none,NA,warmup/chihuahua.jpg,dogs,some_college,NA,english,male,NA,dogs,NA,2,1574698433228,2,This is a,1,These are both,doberman,NA,warmup2,NA
895,NA,pine,NA,Mon Nov 25 2019 10:13:53 GMT-0600 (Central Standard Time),NA,23,warmup/bonsai.jpg,redwood or sequoia (choose one),This is a,none,2,trees,mary,bonsai,NA,yes,Please label the pictures below.,NA,NA,59,NA,none,NA,warmup/sequoia.png,trees,some_college,NA,english,male,NA,trees,NA,3,1574698433228,1,This is a,1,These are both,weed,NA,warmup2,NA
895,NA,redwood,NA,Mon Nov 25 2019 10:13:53 GMT-0600 (Central Standard Time),NA,23,warmup/bonsai.jpg,redwood or sequoia (choose one),This is a,none,2,trees,mary,bonsai,NA,yes,Please label the pictures below.,NA,NA,59,NA,none,NA,warmup/sequoia.png,trees,some_college,NA,english,male,NA,trees,NA,3,1574698433228,2,This is a,1,These are both,bonsai,NA,warmup2,NA
895,What do you think your friend meant?,NA,It is big relative to other,Mon Nov 25 2019 10:13:53 GMT-0600 (Central Standard Time),ref-utility/doberman-5-6.png,23,NA,NA,NA,none,2,dogs1,mary,NA,1,yes,"Your friend runs far ahead of you, and you see him in the distance:",predicative,warmup/doberman.png,59,dogs,none,1,NA,NA,some_college,big,english,male,NA,NA,You and your friend see the following:,1,1574698433228,NA,NA,1,NA,NA,congr,custom_main_text2,Your friend says: <br/><b>That doberman is big.</b>
895,What do you think your friend meant?,NA,It is small relative to other,Mon Nov 25 2019 10:13:53 GMT-0600 (Central Standard Time),ref-utility/hummingbirds-5-6.png,23,NA,NA,NA,none,2,birds,mary,NA,1,yes,"Your friend runs far ahead of you, and you see him in the distance:",predicative,warmup/hummingbird.png,59,birds,none,1,NA,NA,some_college,small,english,male,NA,NA,You and your friend see the following:,2,1574698433228,NA,NA,1,NA,NA,congr,custom_main_text2,Your friend says: <br/><b>That hummingbird is small.</b>
895,What do you think your friend meant?,NA,It is small relative to other,Mon Nov 25 2019 10:13:53 GMT-0600 (Central Standard Time),ref-utility/bonsais-5-6.png,23,NA,NA,NA,none,2,trees,mary,NA,1,yes,"Your friend runs far ahead of you, and you see him in the distance:",predicative,warmup/bonsai.png,59,trees,none,1,NA,NA,some_college,small,english,male,NA,NA,You and your friend see the following:,3,1574698433228,NA,NA,1,NA,NA,congr,custom_main_text2,Your friend says: <br/><b>That bonsai is small.</b>
893,NA,Shark,NA,Mon Nov 25 2019 10:08:03 GMT-0600 (Central Standard Time),NA,23,warmup/goldfish_warmup.png,swordfish,This is a,None,2,fish,Jennifer,goldfish,NA,NA,Please label the pictures below.,NA,NA,NA,NA,Have a nice day!,NA,warmup/swordfish.jpg,Fish,some_college,NA,English,NA,NA,fish,NA,1,1574698083656,1,This is a,1.25,These are both,Fish,NA,warmup1,NA
893,NA,swordfish,NA,Mon Nov 25 2019 10:08:03 GMT-0600 (Central Standard Time),NA,23,warmup/goldfish_warmup.png,swordfish,This is a,None,2,fish,Jennifer,goldfish,NA,NA,Please label the pictures below.,NA,NA,NA,NA,Have a nice day!,NA,warmup/swordfish.jpg,Fish,some_college,NA,English,NA,NA,fish,NA,1,1574698083656,2,This is a,1.25,These are both,goldfish,NA,warmup1,NA
893,NA,pug,NA,Mon Nov 25 2019 10:08:03 GMT-0600 (Central Standard Time),NA,23,warmup/great-dane.jpg,pug,This is a,None,2,dogs,Jennifer,great dane,NA,NA,Please label the pictures below.,NA,NA,NA,NA,Have a nice day!,NA,warmup/pug.jpg,dogs,some_college,NA,English,NA,NA,dogs,NA,2,1574698083656,1,This is a,1.25,These are both,dog,NA,warmup1,NA
893,NA,pug,NA,Mon Nov 25 2019 10:08:03 GMT-0600 (Central Standard Time),NA,23,warmup/great-dane.jpg,pug,This is a,None,2,dogs,Jennifer,great dane,NA,NA,Please label the pictures below.,NA,NA,NA,NA,Have a nice day!,NA,warmup/pug.jpg,dogs,some_college,NA,English,NA,NA,dogs,NA,2,1574698083656,2,This is a,1.25,These are both,great dane,NA,warmup1,NA
893,NA,oak tree,NA,Mon Nov 25 2019 10:08:03 GMT-0600 (Central Standard Time),NA,23,warmup/bonsai.jpg,redwood or sequoia (choose one),This is a,None,2,trees,Jennifer,bonsai,NA,NA,Please label the pictures below.,NA,NA,NA,NA,Have a nice day!,NA,warmup/sequoia.png,trees,some_college,NA,English,NA,NA,trees,NA,3,1574698083656,1,This is a,1.25,These are both,bonzai,NA,warmup1,NA
893,NA,redwood,NA,Mon Nov 25 2019 10:08:03 GMT-0600 (Central Standard Time),NA,23,warmup/bonsai.jpg,redwood or sequoia (choose one),This is a,None,2,trees,Jennifer,bonsai,NA,NA,Please label the pictures below.,NA,NA,NA,NA,Have a nice day!,NA,warmup/sequoia.png,trees,some_college,NA,English,NA,NA,trees,NA,3,1574698083656,2,This is a,1.25,These are both,bonsai,NA,warmup1,NA
893,What do you think your friend meant?,NA,It is big relative to other,Mon Nov 25 2019 10:08:03 GMT-0600 (Central Standard Time),ref-utility/swordfish-5-6.png,23,NA,NA,NA,None,2,fish,Jennifer,NA,1,NA,"Your friend runs far ahead of you, and you see him in the distance:",predicative,warmup/swordfish.png,NA,Fish,Have a nice day!,1,NA,NA,some_college,big,English,NA,NA,NA,You and your friend see the following:,1,1574698083656,NA,NA,1.25,NA,NA,congr,custom_main_text1,Your friend says: <br/><b>That swordfish is big.</b>
893,What do you think your friend meant?,NA,It is small relative to other,Mon Nov 25 2019 10:08:03 GMT-0600 (Central Standard Time),ref-utility/bonsais-5-6.png,23,NA,NA,NA,None,2,trees,Jennifer,NA,1,NA,"Your friend runs far ahead of you, and you see him in the distance:",predicative,warmup/bonsai.png,NA,trees,Have a nice day!,1,NA,NA,some_college,small,English,NA,NA,NA,You and your friend see the following:,2,1574698083656,NA,NA,1.25,NA,NA,congr,custom_main_text1,Your friend says: <br/><b>That bonsai is small.</b>
893,What do you think your friend meant?,NA,It is small relative to other,Mon Nov 25 2019 10:08:03 GMT-0600 (Central Standard Time),ref-utility/pugs-5-6.png,23,NA,NA,NA,None,2,dogs2,Jennifer,NA,1,NA,"Your friend runs far ahead of you, and you see him in the distance:",predicative,warmup/pug.png,NA,pugs,Have a nice day!,1,NA,NA,some_college,small,English,NA,NA,NA,You and your friend see the following:,3,1574698083656,NA,NA,1.25,NA,NA,congr,custom_main_text1,Your friend says: <br/><b>That pug is small.</b>
893,NA,daisy,NA,Mon Nov 25 2019 10:08:03 GMT-0600 (Central Standard Time),NA,23,warmup/sunflower_warmup.png,dandelion,This is a,None,2,flowers,Jennifer,sunflower,NA,NA,Please label the pictures below.,NA,NA,NA,NA,Have a nice day!,NA,warmup/dandelion.jpg,flower,some_college,NA,English,NA,NA,flowers,NA,1,1574698083656,1,This is a,1.25,These are both,sunflower,NA,warmup2,NA
893,NA,dandelion,NA,Mon Nov 25 2019 10:08:03 GMT-0600 (Central Standard Time),NA,23,warmup/sunflower_warmup.png,dandelion,This is a,None,2,flowers,Jennifer,sunflower,NA,NA,Please label the pictures below.,NA,NA,NA,NA,Have a nice day!,NA,warmup/dandelion.jpg,flowers,some_college,NA,English,NA,NA,flowers,NA,1,1574698083656,2,This is a,1.25,These are both,sunflower,NA,warmup2,NA
893,NA,chiuwawa,NA,Mon Nov 25 2019 10:08:03 GMT-0600 (Central Standard Time),NA,23,warmup/doberman_warmup.png,chihuahua,This is a,None,2,dogs,Jennifer,doberman,NA,NA,Please label the pictures below.,NA,NA,NA,NA,Have a nice day!,NA,warmup/chihuahua.jpg,dogs,some_college,NA,English,NA,NA,dogs,NA,2,1574698083656,1,This is a,1.25,These are both,doperman,NA,warmup2,NA
893,NA,chihuahua,NA,Mon Nov 25 2019 10:08:03 GMT-0600 (Central Standard Time),NA,23,warmup/doberman_warmup.png,chihuahua,This is a,None,2,dogs,Jennifer,doberman,NA,NA,Please label the pictures below.,NA,NA,NA,NA,Have a nice day!,NA,warmup/chihuahua.jpg,dogs,some_college,NA,English,NA,NA,dogs,NA,2,1574698083656,2,This is a,1.25,These are both,doberman,NA,warmup2,NA
893,NA,hummingbird,NA,Mon Nov 25 2019 10:08:03 GMT-0600 (Central Standard Time),NA,23,warmup/eagle.jpg,hummingbird,This is a,None,2,birds,Jennifer,eagle,NA,NA,Please label the pictures below.,NA,NA,NA,NA,Have a nice day!,NA,warmup/colibri.jpg,birds,some_college,NA,English,NA,NA,birds,NA,3,1574698083656,1,This is an,1.25,These are both,eagle,NA,warmup2,NA
893,What do you think your friend meant?,NA,It is big relative to other,Mon Nov 25 2019 10:08:03 GMT-0600 (Central Standard Time),ref-utility/eagles-5-6.png,23,NA,NA,NA,None,2,birds,Jennifer,NA,1,NA,"Your friend runs far ahead of you, and you see him in the distance:",predicative,warmup/eagle.png,NA,eagles,Have a nice day!,1,NA,NA,some_college,big,English,NA,NA,NA,You and your friend see the following:,1,1574698083656,NA,NA,1.25,NA,NA,congr,custom_main_text2,Your friend says: <br/><b>That eagle is big.</b>
893,What do you think your friend meant?,NA,It is small relative to other,Mon Nov 25 2019 10:08:03 GMT-0600 (Central Standard Time),ref-utility/dandelions-5-6.png,23,NA,NA,NA,None,2,flowers,Jennifer,NA,1,NA,"Your friend runs far ahead of you, and you see him in the distance:",predicative,warmup/dandelion.png,NA,dandelions,Have a nice day!,1,NA,NA,some_college,small,English,NA,NA,NA,You and your friend see the following:,2,1574698083656,NA,NA,1.25,NA,NA,congr,custom_main_text2,Your friend says: <br/><b>That dandelion is small.</b>
893,What do you think your friend meant?,NA,It is big relative to other,Mon Nov 25 2019 10:08:03 GMT-0600 (Central Standard Time),ref-utility/doberman-5-6.png,23,NA,NA,NA,None,2,dogs1,Jennifer,NA,1,NA,"Your friend runs far ahead of you, and you see him in the distance:",predicative,warmup/doberman.png,NA,dobermans,Have a nice day!,1,NA,NA,some_college,big,English,NA,NA,NA,You and your friend see the following:,3,1574698083656,NA,NA,1.25,NA,NA,congr,custom_main_text2,Your friend says: <br/><b>That doberman is big.</b>
892,NA,pug,NA,Mon Nov 25 2019 11:06:41 GMT-0500 (Eastern Standard Time),NA,23,warmup/great-dane.jpg,pug,This is a,NA,0,dogs,Susan,great dane,NA,yes,Please label the pictures below.,NA,NA,36,NA,NA,NA,warmup/pug.jpg,dogs,graduated_college,NA,English,male,NA,dogs,NA,1,1574698001891,1,This is a,1,These are both,great dane,NA,warmup1,NA
892,NA,chiwaiai,NA,Mon Nov 25 2019 11:06:41 GMT-0500 (Eastern Standard Time),NA,23,warmup/doberman_warmup.png,chihuahua,This is a,NA,0,dogs,Susan,doberman,NA,yes,Please label the pictures below.,NA,NA,36,NA,NA,NA,warmup/chihuahua.jpg,dogs,graduated_college,NA,English,male,NA,dogs,NA,2,1574698001891,1,This is a,1,These are both,dobberman,NA,warmup1,NA
892,NA,chihuahua,NA,Mon Nov 25 2019 11:06:41 GMT-0500 (Eastern Standard Time),NA,23,warmup/doberman_warmup.png,chihuahua,This is a,NA,0,dogs,Susan,doberman,NA,yes,Please label the pictures below.,NA,NA,36,NA,NA,NA,warmup/chihuahua.jpg,dogs,graduated_college,NA,English,male,NA,dogs,NA,2,1574698001891,2,This is a,1,These are both,doberman,NA,warmup1,NA
892,NA,redwood,NA,Mon Nov 25 2019 11:06:41 GMT-0500 (Eastern Standard Time),NA,23,warmup/bonsai.jpg,redwood or sequoia (choose one),This is a,NA,0,trees,Susan,bonsai,NA,yes,Please label the pictures below.,NA,NA,36,NA,NA,NA,warmup/sequoia.png,trees,graduated_college,NA,English,male,NA,trees,NA,3,1574698001891,1,This is a,1,These are both,bonzi,NA,warmup1,NA
892,NA,redwood,NA,Mon Nov 25 2019 11:06:41 GMT-0500 (Eastern Standard Time),NA,23,warmup/bonsai.jpg,redwood or sequoia (choose one),This is a,NA,0,trees,Susan,bonsai,NA,yes,Please label the pictures below.,NA,NA,36,NA,NA,NA,warmup/sequoia.png,trees,graduated_college,NA,English,male,NA,trees,NA,3,1574698001891,2,This is a,1,These are both,bonsai,NA,warmup1,NA
892,What do you think your friend meant?,NA,It is small relative to other,Mon Nov 25 2019 11:06:41 GMT-0500 (Eastern Standard Time),ref-utility/pugs-5-6.png,23,NA,NA,NA,NA,0,dogs2,Susan,NA,1,yes,"Your friend runs far ahead of you, and you see him in the distance:",predicative,warmup/pug.png,36,dogs,NA,1,NA,NA,graduated_college,small,English,male,NA,NA,You and your friend see the following:,1,1574698001891,NA,NA,1,NA,NA,congr,custom_main_text1,Your friend says: <br/><b>That pug is small.</b>
892,What do you think your friend meant?,NA,It is big relative to other,Mon Nov 25 2019 11:06:41 GMT-0500 (Eastern Standard Time),ref-utility/redwoods-5-6.png,23,NA,NA,NA,NA,0,trees,Susan,NA,1,yes,"Your friend runs far ahead of you, and you see him in the distance:",predicative,warmup/redwood.png,36,trees,NA,1,NA,NA,graduated_college,big,English,male,NA,NA,You and your friend see the following:,2,1574698001891,NA,NA,1,NA,NA,congr,custom_main_text1,Your friend says: <br/><b>That redwood is big.</b>
892,What do you think your friend meant?,NA,It is small relative to other,Mon Nov 25 2019 11:06:41 GMT-0500 (Eastern Standard Time),ref-utility/chihuahuas-5-6.png,23,NA,NA,NA,NA,0,dogs1,Susan,NA,1,yes,"Your friend runs far ahead of you, and you see him in the distance:",predicative,warmup/chihuahua.png,36,dogs,NA,1,NA,NA,graduated_college,small,English,male,NA,NA,You and your friend see the following:,3,1574698001891,NA,NA,1,NA,NA,congr,custom_main_text1,Your friend says: <br/><b>That chihuahua is small.</b>
892,NA,daisy,NA,Mon Nov 25 2019 11:06:41 GMT-0500 (Eastern Standard Time),NA,23,warmup/sunflower_warmup.png,dandelion,This is a,NA,0,flowers,Susan,sunflower,NA,yes,Please label the pictures below.,NA,NA,36,NA,NA,NA,warmup/dandelion.jpg,flower,graduated_college,NA,English,male,NA,flowers,NA,1,1574698001891,1,This is a,1,These are both,sunflower,NA,warmup2,NA
892,NA,dandelion,NA,Mon Nov 25 2019 11:06:41 GMT-0500 (Eastern Standard Time),NA,23,warmup/sunflower_warmup.png,dandelion,This is a,NA,0,flowers,Susan,sunflower,NA,yes,Please label the pictures below.,NA,NA,36,NA,NA,NA,warmup/dandelion.jpg,flowers,graduated_college,NA,English,male,NA,flowers,NA,1,1574698001891,2,This is a,1,These are both,sunflower,NA,warmup2,NA
892,NA,hummingbird,NA,Mon Nov 25 2019 11:06:41 GMT-0500 (Eastern Standard Time),NA,23,warmup/eagle.jpg,hummingbird,This is a,NA,0,birds,Susan,eagle,NA,yes,Please label the pictures below.,NA,NA,36,NA,NA,NA,warmup/colibri.jpg,birds,graduated_college,NA,English,male,NA,birds,NA,2,1574698001891,1,This is an,1,These are both,eagle,NA,warmup2,NA
892,NA,marlin,NA,Mon Nov 25 2019 11:06:41 GMT-0500 (Eastern Standard Time),NA,23,warmup/goldfish_warmup.png,swordfish,This is a,NA,0,fish,Susan,goldfish,NA,yes,Please label the pictures below.,NA,NA,36,NA,NA,NA,warmup/swordfish.jpg,fish,graduated_college,NA,English,male,NA,fish,NA,3,1574698001891,1,This is a,1,These are both,goldfish,NA,warmup2,NA
892,NA,swordfish,NA,Mon Nov 25 2019 11:06:41 GMT-0500 (Eastern Standard Time),NA,23,warmup/goldfish_warmup.png,swordfish,This is a,NA,0,fish,Susan,goldfish,NA,yes,Please label the pictures below.,NA,NA,36,NA,NA,NA,warmup/swordfish.jpg,fish,graduated_college,NA,English,male,NA,fish,NA,3,1574698001891,2,This is a,1,These are both,goldfish,NA,warmup2,NA
892,What do you think your friend meant?,NA,It is small relative to other,Mon Nov 25 2019 11:06:41 GMT-0500 (Eastern Standard Time),ref-utility/goldfish-5-6.png,23,NA,NA,NA,NA,0,fish,Susan,NA,1,yes,"Your friend runs far ahead of you, and you see him in the distance:",predicative,warmup/goldfish.png,36,fish,NA,1,NA,NA,graduated_college,small,English,male,NA,NA,You and your friend see the following:,1,1574698001891,NA,NA,1,NA,NA,congr,custom_main_text2,Your friend says: <br/><b>That goldfish is small.</b>
892,What do you think your friend meant?,NA,It is big relative to other,Mon Nov 25 2019 11:06:41 GMT-0500 (Eastern Standard Time),ref-utility/eagles-5-6.png,23,NA,NA,NA,NA,0,birds,Susan,NA,1,yes,"Your friend runs far ahead of you, and you see him in the distance:",predicative,warmup/eagle.png,36,eagles,NA,1,NA,NA,graduated_college,big,English,male,NA,NA,You and your friend see the following:,2,1574698001891,NA,NA,1,NA,NA,congr,custom_main_text2,Your friend says: <br/><b>That eagle is big.</b>
892,What do you think your friend meant?,NA,It is big relative to other,Mon Nov 25 2019 11:06:41 GMT-0500 (Eastern Standard Time),ref-utility/sunflowers-5-6.png,23,NA,NA,NA,NA,0,flowers,Susan,NA,1,yes,"Your friend runs far ahead of you, and you see him in the distance:",predicative,warmup/sunflower.png,36,flowers,NA,1,NA,NA,graduated_college,big,English,male,NA,NA,You and your friend see the following:,3,1574698001891,NA,NA,1,NA,NA,congr,custom_main_text2,Your friend says: <br/><b>That sunflower is big.</b>
889,NA,damdelion,NA,Mon Nov 25 2019 10:59:48 GMT-0500 (Eastern Standard Time),NA,23,warmup/sunflower_warmup.png,dandelion,This is a,I experienced no issues.,2,flowers,margaret,sunflower,NA,NA,Please label the pictures below.,NA,NA,40,NA,I have no further comments.,NA,warmup/dandelion.jpg,flowers,some_college,NA,English,male,NA,flowers,NA,1,1574697588655,1,This is a,1,These are both,sunflower,NA,warmup1,NA
889,NA,dandelion,NA,Mon Nov 25 2019 10:59:48 GMT-0500 (Eastern Standard Time),NA,23,warmup/sunflower_warmup.png,dandelion,This is a,I experienced no issues.,2,flowers,margaret,sunflower,NA,NA,Please label the pictures below.,NA,NA,40,NA,I have no further comments.,NA,warmup/dandelion.jpg,flowers,some_college,NA,English,male,NA,flowers,NA,1,1574697588655,2,This is a,1,These are both,sunflower,NA,warmup1,NA
889,NA,swordfish,NA,Mon Nov 25 2019 10:59:48 GMT-0500 (Eastern Standard Time),NA,23,warmup/goldfish_warmup.png,swordfish,This is a,I experienced no issues.,2,fish,margaret,goldfish,NA,NA,Please label the pictures below.,NA,NA,40,NA,I have no further comments.,NA,warmup/swordfish.jpg,fish,some_college,NA,English,male,NA,fish,NA,2,1574697588655,1,This is a,1,These are both,goldfish,NA,warmup1,NA
889,NA,hummingbird,NA,Mon Nov 25 2019 10:59:48 GMT-0500 (Eastern Standard Time),NA,23,warmup/eagle.jpg,hummingbird,This is a,I experienced no issues.,2,birds,margaret,eagle,NA,NA,Please label the pictures below.,NA,NA,40,NA,I have no further comments.,NA,warmup/colibri.jpg,birds,some_college,NA,English,male,NA,birds,NA,3,1574697588655,1,This is an,1,These are both,bald eagle,NA,warmup1,NA
889,NA,hummingbird,NA,Mon Nov 25 2019 10:59:48 GMT-0500 (Eastern Standard Time),NA,23,warmup/eagle.jpg,hummingbird,This is a,I experienced no issues.,2,birds,margaret,eagle,NA,NA,Please label the pictures below.,NA,NA,40,NA,I have no further comments.,NA,warmup/colibri.jpg,birds,some_college,NA,English,male,NA,birds,NA,3,1574697588655,2,This is an,1,These are both,eagle,NA,warmup1,NA
889,What do you think your friend meant?,NA,It is big relative to other,Mon Nov 25 2019 10:59:48 GMT-0500 (Eastern Standard Time),ref-utility/eagles-5-6.png,23,NA,NA,NA,I experienced no issues.,2,birds,margaret,NA,1,NA,"Your friend runs far ahead of you, and you see him in the distance:",predicative,warmup/eagle.png,40,birds,I have no further comments.,1,NA,NA,some_college,big,English,male,NA,NA,You and your friend see the following:,1,1574697588655,NA,NA,1,NA,NA,congr,custom_main_text1,Your friend says: <br/><b>That eagle is big.</b>
889,What do you think your friend meant?,NA,It is small relative to other,Mon Nov 25 2019 10:59:48 GMT-0500 (Eastern Standard Time),ref-utility/dandelions-5-6.png,23,NA,NA,NA,I experienced no issues.,2,flowers,margaret,NA,1,NA,"Your friend runs far ahead of you, and you see him in the distance:",predicative,warmup/dandelion.png,40,flowers,I have no further comments.,1,NA,NA,some_college,small,English,male,NA,NA,You and your friend see the following:,2,1574697588655,NA,NA,1,NA,NA,congr,custom_main_text1,Your friend says: <br/><b>That dandelion is small.</b>
889,What do you think your friend meant?,NA,It is small relative to other,Mon Nov 25 2019 10:59:48 GMT-0500 (Eastern Standard Time),ref-utility/goldfish-5-6.png,23,NA,NA,NA,I experienced no issues.,2,fish,margaret,NA,1,NA,"Your friend runs far ahead of you, and you see him in the distance:",predicative,warmup/goldfish.png,40,fish,I have no further comments.,1,NA,NA,some_college,small,English,male,NA,NA,You and your friend see the following:,3,1574697588655,NA,NA,1,NA,NA,congr,custom_main_text1,Your friend says: <br/><b>That goldfish is small.</b>
889,NA,pug,NA,Mon Nov 25 2019 10:59:48 GMT-0500 (Eastern Standard Time),NA,23,warmup/great-dane.jpg,pug,This is a,I experienced no issues.,2,dogs,margaret,great dane,NA,NA,Please label the pictures below.,NA,NA,40,NA,I have no further comments.,NA,warmup/pug.jpg,dogs,some_college,NA,English,male,NA,dogs,NA,1,1574697588655,1,This is a,1,These are both,great dane,NA,warmup2,NA
889,NA,tree,NA,Mon Nov 25 2019 10:59:48 GMT-0500 (Eastern Standard Time),NA,23,warmup/bonsai.jpg,redwood or sequoia (choose one),This is a,I experienced no issues.,2,trees,margaret,bonsai,NA,NA,Please label the pictures below.,NA,NA,40,NA,I have no further comments.,NA,warmup/sequoia.png,trees,some_college,NA,English,male,NA,trees,NA,2,1574697588655,1,This is a,1,These are both,bonzai,NA,warmup2,NA
889,NA,redwood,NA,Mon Nov 25 2019 10:59:48 GMT-0500 (Eastern Standard Time),NA,23,warmup/bonsai.jpg,redwood or sequoia (choose one),This is a,I experienced no issues.,2,trees,margaret,bonsai,NA,NA,Please label the pictures below.,NA,NA,40,NA,I have no further comments.,NA,warmup/sequoia.png,trees,some_college,NA,English,male,NA,trees,NA,2,1574697588655,2,This is a,1,These are both,bonsai,NA,warmup2,NA
889,NA,chihuahua,NA,Mon Nov 25 2019 10:59:48 GMT-0500 (Eastern Standard Time),NA,23,warmup/doberman_warmup.png,chihuahua,This is a,I experienced no issues.,2,dogs,margaret,doberman,NA,NA,Please label the pictures below.,NA,NA,40,NA,I have no further comments.,NA,warmup/chihuahua.jpg,dogs,some_college,NA,English,male,NA,dogs,NA,3,1574697588655,1,This is a,1,These are both,doberman,NA,warmup2,NA
889,What do you think your friend meant?,NA,It is big relative to other,Mon Nov 25 2019 10:59:48 GMT-0500 (Eastern Standard Time),ref-utility/great-danes-5-6.png,23,NA,NA,NA,I experienced no issues.,2,dogs2,margaret,NA,1,NA,"Your friend runs far ahead of you, and you see him in the distance:",predicative,warmup/great-dane.png,40,dogs,I have no further comments.,1,NA,NA,some_college,big,English,male,NA,NA,You and your friend see the following:,1,1574697588655,NA,NA,1,NA,NA,congr,custom_main_text2,Your friend says: <br/><b>That great dane is big.</b>
889,What do you think your friend meant?,NA,It is big relative to other,Mon Nov 25 2019 10:59:48 GMT-0500 (Eastern Standard Time),ref-utility/doberman-5-6.png,23,NA,NA,NA,I experienced no issues.,2,dogs1,margaret,NA,1,NA,"Your friend runs far ahead of you, and you see him in the distance:",predicative,warmup/doberman.png,40,dogs,I have no further comments.,1,NA,NA,some_college,big,English,male,NA,NA,You and your friend see the following:,2,1574697588655,NA,NA,1,NA,NA,congr,custom_main_text2,Your friend says: <br/><b>That doberman is big.</b>
889,What do you think your friend meant?,NA,It is small relative to other,Mon Nov 25 2019 10:59:48 GMT-0500 (Eastern Standard Time),ref-utility/bonsais-5-6.png,23,NA,NA,NA,I experienced no issues.,2,trees,margaret,NA,1,NA,"Your friend runs far ahead of you, and you see him in the distance:",predicative,warmup/bonsai.png,40,trees,I have no further comments.,1,NA,NA,some_college,small,English,male,NA,NA,You and your friend see the following:,3,1574697588655,NA,NA,1,NA,NA,congr,custom_main_text2,Your friend says: <br/><b>That bonsai is small.</b>
888,NA,dog,NA,Mon Nov 25 2019 10:55:15 GMT-0500 (Eastern Standard Time),NA,23,warmup/doberman_warmup.png,chihuahua,This is a,Everything worked clearly.,2,dogs,susan,doberman,NA,yes,Please label the pictures below.,NA,NA,29,NA,Thank you for the hit and the fair pay.,NA,warmup/chihuahua.jpg,dogs,some_college,NA,English,male,NA,dogs,NA,1,1574697315966,1,This is a,1,These are both,dog,NA,warmup1,NA
888,NA,dog,NA,Mon Nov 25 2019 10:55:15 GMT-0500 (Eastern Standard Time),NA,23,warmup/doberman_warmup.png,chihuahua,This is a,Everything worked clearly.,2,dogs,susan,doberman,NA,yes,Please label the pictures below.,NA,NA,29,NA,Thank you for the hit and the fair pay.,NA,warmup/chihuahua.jpg,dogs,some_college,NA,English,male,NA,dogs,NA,1,1574697315966,2,This is a,1,These are both,dog,NA,warmup1,NA
888,NA,chihuahua,NA,Mon Nov 25 2019 10:55:15 GMT-0500 (Eastern Standard Time),NA,23,warmup/doberman_warmup.png,chihuahua,This is a,Everything worked clearly.,2,dogs,susan,doberman,NA,yes,Please label the pictures below.,NA,NA,29,NA,Thank you for the hit and the fair pay.,NA,warmup/chihuahua.jpg,dogs,some_college,NA,English,male,NA,dogs,NA,1,1574697315966,3,This is a,1,These are both,doberman,NA,warmup1,NA
888,NA,swordfish,NA,Mon Nov 25 2019 10:55:15 GMT-0500 (Eastern Standard Time),NA,23,warmup/goldfish_warmup.png,swordfish,This is a,Everything worked clearly.,2,fish,susan,goldfish,NA,yes,Please label the pictures below.,NA,NA,29,NA,Thank you for the hit and the fair pay.,NA,warmup/swordfish.jpg,fish,some_college,NA,English,male,NA,fish,NA,2,1574697315966,1,This is a,1,These are both,goldfish,NA,warmup1,NA
888,NA,dandelion,NA,Mon Nov 25 2019 10:55:15 GMT-0500 (Eastern Standard Time),NA,23,warmup/sunflower_warmup.png,dandelion,This is a,Everything worked clearly.,2,flowers,susan,sunflower,NA,yes,Please label the pictures below.,NA,NA,29,NA,Thank you for the hit and the fair pay.,NA,warmup/dandelion.jpg,flowers,some_college,NA,English,male,NA,flowers,NA,3,1574697315966,1,This is a,1,These are both,sunflower,NA,warmup1,NA
888,What do you think your friend meant?,NA,It is small relative to other,Mon Nov 25 2019 10:55:15 GMT-0500 (Eastern Standard Time),ref-utility/goldfish-5-6.png,23,NA,NA,NA,Everything worked clearly.,2,fish,susan,NA,1,yes,"Your friend runs far ahead of you, and you see him in the distance:",predicative,warmup/goldfish.png,29,fish,Thank you for the hit and the fair pay.,1,NA,NA,some_college,small,English,male,NA,NA,You and your friend see the following:,1,1574697315966,NA,NA,1,NA,NA,congr,custom_main_text1,Your friend says: <br/><b>That goldfish is small.</b>
888,What do you think your friend meant?,NA,It is small relative to other,Mon Nov 25 2019 10:55:15 GMT-0500 (Eastern Standard Time),ref-utility/chihuahuas-5-6.png,23,NA,NA,NA,Everything worked clearly.,2,dogs1,susan,NA,1,yes,"Your friend runs far ahead of you, and you see him in the distance:",predicative,warmup/chihuahua.png,29,dogs,Thank you for the hit and the fair pay.,1,NA,NA,some_college,small,English,male,NA,NA,You and your friend see the following:,2,1574697315966,NA,NA,1,NA,NA,congr,custom_main_text1,Your friend says: <br/><b>That chihuahua is small.</b>
888,What do you think your friend meant?,NA,It is small relative to other,Mon Nov 25 2019 10:55:15 GMT-0500 (Eastern Standard Time),ref-utility/dandelions-5-6.png,23,NA,NA,NA,Everything worked clearly.,2,flowers,susan,NA,1,yes,"Your friend runs far ahead of you, and you see him in the distance:",predicative,warmup/dandelion.png,29,flowers,Thank you for the hit and the fair pay.,1,NA,NA,some_college,small,English,male,NA,NA,You and your friend see the following:,3,1574697315966,NA,NA,1,NA,NA,congr,custom_main_text1,Your friend says: <br/><b>That dandelion is small.</b>
888,NA,cedar,NA,Mon Nov 25 2019 10:55:15 GMT-0500 (Eastern Standard Time),NA,23,warmup/bonsai.jpg,redwood or sequoia (choose one),This is a,Everything worked clearly.,2,trees,susan,bonsai,NA,yes,Please label the pictures below.,NA,NA,29,NA,Thank you for the hit and the fair pay.,NA,warmup/sequoia.png,trees,some_college,NA,English,male,NA,trees,NA,1,1574697315966,1,This is a,1,These are both,banzai,NA,warmup2,NA
888,NA,redwood,NA,Mon Nov 25 2019 10:55:15 GMT-0500 (Eastern Standard Time),NA,23,warmup/bonsai.jpg,redwood or sequoia (choose one),This is a,Everything worked clearly.,2,trees,susan,bonsai,NA,yes,Please label the pictures below.,NA,NA,29,NA,Thank you for the hit and the fair pay.,NA,warmup/sequoia.png,trees,some_college,NA,English,male,NA,trees,NA,1,1574697315966,2,This is a,1,These are both,bonsai,NA,warmup2,NA
888,NA,hummingbird,NA,Mon Nov 25 2019 10:55:15 GMT-0500 (Eastern Standard Time),NA,23,warmup/eagle.jpg,hummingbird,This is a,Everything worked clearly.,2,birds,susan,eagle,NA,yes,Please label the pictures below.,NA,NA,29,NA,Thank you for the hit and the fair pay.,NA,warmup/colibri.jpg,birds,some_college,NA,English,male,NA,birds,NA,2,1574697315966,1,This is an,1,These are both,eagle,NA,warmup2,NA
888,NA,pug,NA,Mon Nov 25 2019 10:55:15 GMT-0500 (Eastern Standard Time),NA,23,warmup/great-dane.jpg,pug,This is a,Everything worked clearly.,2,dogs,susan,great dane,NA,yes,Please label the pictures below.,NA,NA,29,NA,Thank you for the hit and the fair pay.,NA,warmup/pug.jpg,dogs,some_college,NA,English,male,NA,dogs,NA,3,1574697315966,1,This is a,1,These are both,great dane,NA,warmup2,NA
888,What do you think your friend meant?,NA,It is big relative to other,Mon Nov 25 2019 10:55:15 GMT-0500 (Eastern Standard Time),ref-utility/great-danes-5-6.png,23,NA,NA,NA,Everything worked clearly.,2,dogs2,susan,NA,1,yes,"Your friend runs far ahead of you, and you see him in the distance:",predicative,warmup/great-dane.png,29,dogs,Thank you for the hit and the fair pay.,1,NA,NA,some_college,big,English,male,NA,NA,You and your friend see the following:,1,1574697315966,NA,NA,1,NA,NA,congr,custom_main_text2,Your friend says: <br/><b>That great dane is big.</b>
888,What do you think your friend meant?,NA,It is big relative to other,Mon Nov 25 2019 10:55:15 GMT-0500 (Eastern Standard Time),ref-utility/redwoods-5-6.png,23,NA,NA,NA,Everything worked clearly.,2,trees,susan,NA,1,yes,"Your friend runs far ahead of you, and you see him in the distance:",predicative,warmup/redwood.png,29,trees,Thank you for the hit and the fair pay.,1,NA,NA,some_college,big,English,male,NA,NA,You and your friend see the following:,2,1574697315966,NA,NA,1,NA,NA,congr,custom_main_text2,Your friend says: <br/><b>That redwood is big.</b>
888,What do you think your friend meant?,NA,It is big relative to other,Mon Nov 25 2019 10:55:15 GMT-0500 (Eastern Standard Time),ref-utility/eagles-5-6.png,23,NA,NA,NA,Everything worked clearly.,2,birds,susan,NA,1,yes,"Your friend runs far ahead of you, and you see him in the distance:",predicative,warmup/eagle.png,29,birds,Thank you for the hit and the fair pay.,1,NA,NA,some_college,big,English,male,NA,NA,You and your friend see the following:,3,1574697315966,NA,NA,1,NA,NA,congr,custom_main_text2,Your friend says: <br/><b>That eagle is big.</b>
884,NA,Hummingbird,NA,Mon Nov 25 2019 07:42:13 GMT-0800 (Pacific Standard Time),NA,23,warmup/eagle.jpg,hummingbird,This is a,No,2,birds,sarah,eagle,NA,yes,Please label the pictures below.,NA,NA,28,NA,Nice Task and thanks for the Opportunity,NA,warmup/colibri.jpg,Birds,higher_degree,NA,English,male,NA,birds,NA,1,1574696533807,1,This is an,1.5,These are both,Eagle,NA,warmup1,NA
884,NA,Puppy,NA,Mon Nov 25 2019 07:42:13 GMT-0800 (Pacific Standard Time),NA,23,warmup/doberman_warmup.png,chihuahua,This is a,No,2,dogs,sarah,doberman,NA,yes,Please label the pictures below.,NA,NA,28,NA,Nice Task and thanks for the Opportunity,NA,warmup/chihuahua.jpg,Animals,higher_degree,NA,English,male,NA,dogs,NA,2,1574696533807,1,This is a,1.5,These are both,Dog,NA,warmup1,NA
884,NA,Puppy,NA,Mon Nov 25 2019 07:42:13 GMT-0800 (Pacific Standard Time),NA,23,warmup/doberman_warmup.png,chihuahua,This is a,No,2,dogs,sarah,doberman,NA,yes,Please label the pictures below.,NA,NA,28,NA,Nice Task and thanks for the Opportunity,NA,warmup/chihuahua.jpg,dogs,higher_degree,NA,English,male,NA,dogs,NA,2,1574696533807,2,This is a,1.5,These are both,Dog,NA,warmup1,NA
884,NA,Puppy,NA,Mon Nov 25 2019 07:42:13 GMT-0800 (Pacific Standard Time),NA,23,warmup/doberman_warmup.png,chihuahua,This is a,No,2,dogs,sarah,doberman,NA,yes,Please label the pictures below.,NA,NA,28,NA,Nice Task and thanks for the Opportunity,NA,warmup/chihuahua.jpg,Dogs,higher_degree,NA,English,male,NA,dogs,NA,2,1574696533807,3,This is a,1.5,These are both,Dog,NA,warmup1,NA
884,NA,Puppy,NA,Mon Nov 25 2019 07:42:13 GMT-0800 (Pacific Standard Time),NA,23,warmup/doberman_warmup.png,chihuahua,This is a,No,2,dogs,sarah,doberman,NA,yes,Please label the pictures below.,NA,NA,28,NA,Nice Task and thanks for the Opportunity,NA,warmup/chihuahua.jpg,Dogs,higher_degree,NA,English,male,NA,dogs,NA,2,1574696533807,4,This is a,1.5,These are both,Dog,NA,warmup1,NA
884,NA,Puppy,NA,Mon Nov 25 2019 07:42:13 GMT-0800 (Pacific Standard Time),NA,23,warmup/doberman_warmup.png,chihuahua,This is a,No,2,dogs,sarah,doberman,NA,yes,Please label the pictures below.,NA,NA,28,NA,Nice Task and thanks for the Opportunity,NA,warmup/chihuahua.jpg,Dogs,higher_degree,NA,English,male,NA,dogs,NA,2,1574696533807,5,This is a,1.5,These are both,Dog,NA,warmup1,NA
884,NA,Puppy,NA,Mon Nov 25 2019 07:42:13 GMT-0800 (Pacific Standard Time),NA,23,warmup/doberman_warmup.png,chihuahua,This is a,No,2,dogs,sarah,doberman,NA,yes,Please label the pictures below.,NA,NA,28,NA,Nice Task and thanks for the Opportunity,NA,warmup/chihuahua.jpg,Dogs,higher_degree,NA,English,male,NA,dogs,NA,2,1574696533807,6,This is a,1.5,These are both,Dog,NA,warmup1,NA
884,NA,Puppy,NA,Mon Nov 25 2019 07:42:13 GMT-0800 (Pacific Standard Time),NA,23,warmup/doberman_warmup.png,chihuahua,This is a,No,2,dogs,sarah,doberman,NA,yes,Please label the pictures below.,NA,NA,28,NA,Nice Task and thanks for the Opportunity,NA,warmup/chihuahua.jpg,Dogs,higher_degree,NA,English,male,NA,dogs,NA,2,1574696533807,7,This is a,1.5,These are both,Dog,NA,warmup1,NA
884,NA,Puppy,NA,Mon Nov 25 2019 07:42:13 GMT-0800 (Pacific Standard Time),NA,23,warmup/doberman_warmup.png,chihuahua,This is a,No,2,dogs,sarah,doberman,NA,yes,Please label the pictures below.,NA,NA,28,NA,Nice Task and thanks for the Opportunity,NA,warmup/chihuahua.jpg,Dogs,higher_degree,NA,English,male,NA,dogs,NA,2,1574696533807,8,This is a,1.5,These are both,Weimaraner,NA,warmup1,NA
884,NA,Puppy,NA,Mon Nov 25 2019 07:42:13 GMT-0800 (Pacific Standard Time),NA,23,warmup/doberman_warmup.png,chihuahua,This is a,No,2,dogs,sarah,doberman,NA,yes,Please label the pictures below.,NA,NA,28,NA,Nice Task and thanks for the Opportunity,NA,warmup/chihuahua.jpg,Dogs,higher_degree,NA,English,male,NA,dogs,NA,2,1574696533807,9,This is a,1.5,These are both,Weimaraner,NA,warmup1,NA
884,NA,Puppy,NA,Mon Nov 25 2019 07:42:13 GMT-0800 (Pacific Standard Time),NA,23,warmup/doberman_warmup.png,chihuahua,This is a,No,2,dogs,sarah,doberman,NA,yes,Please label the pictures below.,NA,NA,28,NA,Nice Task and thanks for the Opportunity,NA,warmup/chihuahua.jpg,dogs,higher_degree,NA,English,male,NA,dogs,NA,2,1574696533807,10,This is a,1.5,These are both,Weimaraner,NA,warmup1,NA
884,NA,Puppy,NA,Mon Nov 25 2019 07:42:13 GMT-0800 (Pacific Standard Time),NA,23,warmup/doberman_warmup.png,chihuahua,This is a,No,2,dogs,sarah,doberman,NA,yes,Please label the pictures below.,NA,NA,28,NA,Nice Task and thanks for the Opportunity,NA,warmup/chihuahua.jpg,dogs,higher_degree,NA,English,male,NA,dogs,NA,2,1574696533807,11,This is a,1.5,These are both,Weimaraner,NA,warmup1,NA
884,NA,Puppy,NA,Mon Nov 25 2019 07:42:13 GMT-0800 (Pacific Standard Time),NA,23,warmup/doberman_warmup.png,chihuahua,This is a,No,2,dogs,sarah,doberman,NA,yes,Please label the pictures below.,NA,NA,28,NA,Nice Task and thanks for the Opportunity,NA,warmup/chihuahua.jpg,dogs,higher_degree,NA,English,male,NA,dogs,NA,2,1574696533807,12,This is a,1.5,These are both,Weimaraner,NA,warmup1,NA
884,NA,Puppy,NA,Mon Nov 25 2019 07:42:13 GMT-0800 (Pacific Standard Time),NA,23,warmup/doberman_warmup.png,chihuahua,This is a,No,2,dogs,sarah,doberman,NA,yes,Please label the pictures below.,NA,NA,28,NA,Nice Task and thanks for the Opportunity,NA,warmup/chihuahua.jpg,dogs,higher_degree,NA,English,male,NA,dogs,NA,2,1574696533807,13,This is a,1.5,These are both,Weimaraner,NA,warmup1,NA
884,NA,Puppy,NA,Mon Nov 25 2019 07:42:13 GMT-0800 (Pacific Standard Time),NA,23,warmup/doberman_warmup.png,chihuahua,This is a,No,2,dogs,sarah,doberman,NA,yes,Please label the pictures below.,NA,NA,28,NA,Nice Task and thanks for the Opportunity,NA,warmup/chihuahua.jpg,dogs,higher_degree,NA,English,male,NA,dogs,NA,2,1574696533807,14,This is a,1.5,These are both,Weimaraner,NA,warmup1,NA
884,NA,Puppy,NA,Mon Nov 25 2019 07:42:13 GMT-0800 (Pacific Standard Time),NA,23,warmup/doberman_warmup.png,chihuahua,This is a,No,2,dogs,sarah,doberman,NA,yes,Please label the pictures below.,NA,NA,28,NA,Nice Task and thanks for the Opportunity,NA,warmup/chihuahua.jpg,dogs,higher_degree,NA,English,male,NA,dogs,NA,2,1574696533807,15,This is a,1.5,These are both,Weimaraner,NA,warmup1,NA
884,NA,Puppy,NA,Mon Nov 25 2019 07:42:13 GMT-0800 (Pacific Standard Time),NA,23,warmup/doberman_warmup.png,chihuahua,This is a,No,2,dogs,sarah,doberman,NA,yes,Please label the pictures below.,NA,NA,28,NA,Nice Task and thanks for the Opportunity,NA,warmup/chihuahua.jpg,Dogs,higher_degree,NA,English,male,NA,dogs,NA,2,1574696533807,16,This is a,1.5,These are both,Weimaraner,NA,warmup1,NA
884,NA,Puppy,NA,Mon Nov 25 2019 07:42:13 GMT-0800 (Pacific Standard Time),NA,23,warmup/doberman_warmup.png,chihuahua,This is a,No,2,dogs,sarah,doberman,NA,yes,Please label the pictures below.,NA,NA,28,NA,Nice Task and thanks for the Opportunity,NA,warmup/chihuahua.jpg,Dogs,higher_degree,NA,English,male,NA,dogs,NA,2,1574696533807,17,This is a,1.5,These are both,Weimaraner,NA,warmup1,NA
884,NA,Chihuahua,NA,Mon Nov 25 2019 07:42:13 GMT-0800 (Pacific Standard Time),NA,23,warmup/doberman_warmup.png,chihuahua,This is a,No,2,dogs,sarah,doberman,NA,yes,Please label the pictures below.,NA,NA,28,NA,Nice Task and thanks for the Opportunity,NA,warmup/chihuahua.jpg,Dogs,higher_degree,NA,English,male,NA,dogs,NA,2,1574696533807,18,This is a,1.5,These are both,doberman,NA,warmup1,NA
884,NA,Dandelion,NA,Mon Nov 25 2019 07:42:13 GMT-0800 (Pacific Standard Time),NA,23,warmup/sunflower_warmup.png,dandelion,This is a,No,2,flowers,sarah,sunflower,NA,yes,Please label the pictures below.,NA,NA,28,NA,Nice Task and thanks for the Opportunity,NA,warmup/dandelion.jpg,Flowers,higher_degree,NA,English,male,NA,flowers,NA,3,1574696533807,1,This is a,1.5,These are both,Sun Flower,NA,warmup1,NA
884,NA,Dandelion,NA,Mon Nov 25 2019 07:42:13 GMT-0800 (Pacific Standard Time),NA,23,warmup/sunflower_warmup.png,dandelion,This is a,No,2,flowers,sarah,sunflower,NA,yes,Please label the pictures below.,NA,NA,28,NA,Nice Task and thanks for the Opportunity,NA,warmup/dandelion.jpg,Flowers,higher_degree,NA,English,male,NA,flowers,NA,3,1574696533807,2,This is a,1.5,These are both,Sunflower,NA,warmup1,NA
884,What do you think your friend meant?,NA,It is big relative to other,Mon Nov 25 2019 07:42:13 GMT-0800 (Pacific Standard Time),ref-utility/eagles-5-6.png,23,NA,NA,NA,No,2,birds,sarah,NA,1,yes,"Your friend runs far ahead of you, and you see him in the distance:",predicative,warmup/eagle.png,28,size,Nice Task and thanks for the Opportunity,1,NA,NA,higher_degree,big,English,male,NA,NA,You and your friend see the following:,1,1574696533807,NA,NA,1.5,NA,NA,congr,custom_main_text1,Your friend says: <br/><b>That eagle is big.</b>
884,What do you think your friend meant?,NA,It is small relative to other,Mon Nov 25 2019 07:42:13 GMT-0800 (Pacific Standard Time),ref-utility/dandelions-5-6.png,23,NA,NA,NA,No,2,flowers,sarah,NA,1,yes,"Your friend runs far ahead of you, and you see him in the distance:",predicative,warmup/dandelion.png,28,size,Nice Task and thanks for the Opportunity,1,NA,NA,higher_degree,small,English,male,NA,NA,You and your friend see the following:,2,1574696533807,NA,NA,1.5,NA,NA,congr,custom_main_text1,Your friend says: <br/><b>That dandelion is small.</b>
884,What do you think your friend meant?,NA,It is small relative to other,Mon Nov 25 2019 07:42:13 GMT-0800 (Pacific Standard Time),ref-utility/chihuahuas-5-6.png,23,NA,NA,NA,No,2,dogs1,sarah,NA,1,yes,"Your friend runs far ahead of you, and you see him in the distance:",predicative,warmup/chihuahua.png,28,size,Nice Task and thanks for the Opportunity,1,NA,NA,higher_degree,small,English,male,NA,NA,You and your friend see the following:,3,1574696533807,NA,NA,1.5,NA,NA,congr,custom_main_text1,Your friend says: <br/><b>That chihuahua is small.</b>
