submission_id,question,response1,sentence_left,context_picture,experiment_id,picture2,correct1,question1,problems,enjoyment,item,botresponse,correct2,pic_spec,understand,text,condition,pic,age,response,comments,ref_spec,picture1,response3,education,target_size,languages,sex,RT,correct3,context,trial_number,startTime,attempts,question3,fairprice,question2,response2,adj_cond,trial_name,utterance
907,<i>What do you think Speaker A meant? </i>,NA,The Empire State Building is tall relative to other,NA,25,NA,NA,NA,None,2,NA,mary,NA,NA,yes,NA,NA,NA,52,buildings,I feel like there were too many trials.,NA,NA,NA,higher_degree,NA,English,female,NA,NA,In the main trials you will be asked to rephrase something a person said. The utterance will contain a word that is <i>relative</i> and your task is to figure out what it is relative to. <br /> <br /> For example: <br /><br />,1,1574702554511,1,NA,0.8,NA,NA,NA,comp_class_warmup,NA
907,NA,woodland,NA,NA,25,warmup/bonsai.jpg,redwood or sequoia (choose one),This is a,None,2,trees,mary,bonsai,NA,yes,Please label the pictures below.,NA,NA,52,NA,I feel like there were too many trials.,NA,warmup/sequoia.png,trees,higher_degree,NA,English,female,NA,trees,NA,1,1574702554511,1,This is a,0.8,These are both,bonsai,NA,warmup1,NA
907,NA,redwood,NA,NA,25,warmup/bonsai.jpg,redwood or sequoia (choose one),This is a,None,2,trees,mary,bonsai,NA,yes,Please label the pictures below.,NA,NA,52,NA,I feel like there were too many trials.,NA,warmup/sequoia.png,trees,higher_degree,NA,English,female,NA,trees,NA,1,1574702554511,2,This is a,0.8,These are both,bonsai,NA,warmup1,NA
907,NA,chihuahua,NA,NA,25,warmup/doberman.png,chihuahua,This is a,None,2,dogs,mary,doberman,NA,yes,Please label the pictures below.,NA,NA,52,NA,I feel like there were too many trials.,NA,warmup/chihuahua.jpg,dogs,higher_degree,NA,English,female,NA,dogs,NA,2,1574702554511,1,This is a,0.8,These are both,doberman,NA,warmup1,NA
907,NA,blue marlin,NA,NA,25,warmup/goldfish.png,swordfish,This is a,None,2,fish,mary,goldfish,NA,yes,Please label the pictures below.,NA,NA,52,NA,I feel like there were too many trials.,NA,warmup/swordfish.jpg,fish,higher_degree,NA,English,female,NA,fish,NA,3,1574702554511,1,This is a,0.8,These are both,goldfish,NA,warmup1,NA
907,NA,swordfish,NA,NA,25,warmup/goldfish.png,swordfish,This is a,None,2,fish,mary,goldfish,NA,yes,Please label the pictures below.,NA,NA,52,NA,I feel like there were too many trials.,NA,warmup/swordfish.jpg,fish,higher_degree,NA,English,female,NA,fish,NA,3,1574702554511,2,This is a,0.8,These are both,goldfish,NA,warmup1,NA
907,What do you think your friend meant?,NA,It is big relative to other,images/dog-parade-doberman.png,25,NA,NA,NA,None,2,dogs1,mary,NA,1,yes,"Your friend runs far ahead of you, and you see him in the distance:",predicative,images/doberman.png,52,dogs,I feel like there were too many trials.,1,NA,NA,higher_degree,big,English,female,NA,NA,You and your friend see the following:,1,1574702554511,NA,NA,0.8,NA,NA,congr,custom_main_text1,Your friend says: <br/><b>That doberman is big.</b>
907,What do you think your friend meant?,NA,It is small relative to other,images/tree-parade-bonsai.png,25,NA,NA,NA,None,2,trees,mary,NA,1,yes,"Your friend runs far ahead of you, and you see him in the distance:",predicative,images/bonsai.png,52,trees,I feel like there were too many trials.,1,NA,NA,higher_degree,small,English,female,NA,NA,You and your friend see the following:,2,1574702554511,NA,NA,0.8,NA,NA,congr,custom_main_text1,Your friend says: <br/><b>That bonsai is small.</b>
907,What do you think your friend meant?,NA,It is big relative to other,images/fish-parade-basic.png,25,NA,NA,NA,None,2,fish,mary,NA,0,yes,"Your friend runs far ahead of you, and you see him in the distance:",predicative,images/swordfish.png,52,fish,I feel like there were too many trials.,1,NA,NA,higher_degree,big,English,female,NA,NA,You and your friend see the following:,3,1574702554511,NA,NA,0.8,NA,NA,basic,custom_main_text1,Your friend says: <br/><b>That swordfish is big.</b>
907,NA,daisy,NA,NA,25,warmup/sunflower.png,dandelion,This is a,None,2,flowers,mary,sunflower,NA,yes,Please label the pictures below.,NA,NA,52,NA,I feel like there were too many trials.,NA,warmup/dandelion.jpg,flowers,higher_degree,NA,English,female,NA,flowers,NA,1,1574702554511,1,This is a,0.8,These are both,sunflower,NA,warmup2,NA
907,NA,dandelion,NA,NA,25,warmup/sunflower.png,dandelion,This is a,None,2,flowers,mary,sunflower,NA,yes,Please label the pictures below.,NA,NA,52,NA,I feel like there were too many trials.,NA,warmup/dandelion.jpg,flowers,higher_degree,NA,English,female,NA,flowers,NA,1,1574702554511,2,This is a,0.8,These are both,sunflower,NA,warmup2,NA
907,NA,hummingbird,NA,NA,25,warmup/eagle.jpg,hummingbird,This is a,None,2,birds,mary,eagle,NA,yes,Please label the pictures below.,NA,NA,52,NA,I feel like there were too many trials.,NA,warmup/colibri.jpg,birds,higher_degree,NA,English,female,NA,birds,NA,2,1574702554511,1,This is an,0.8,These are both,eagle,NA,warmup2,NA
907,NA,pug,NA,NA,25,warmup/great-dane.jpg,pug,This is a,None,2,dogs,mary,great dane,NA,yes,Please label the pictures below.,NA,NA,52,NA,I feel like there were too many trials.,NA,warmup/pug.jpg,dogs,higher_degree,NA,English,female,NA,dogs,NA,3,1574702554511,1,This is a,0.8,These are both,weimeriener,NA,warmup2,NA
907,NA,pug,NA,NA,25,warmup/great-dane.jpg,pug,This is a,None,2,dogs,mary,great dane,NA,yes,Please label the pictures below.,NA,NA,52,NA,I feel like there were too many trials.,NA,warmup/pug.jpg,dogs,higher_degree,NA,English,female,NA,dogs,NA,3,1574702554511,2,This is a,0.8,These are both,great dane,NA,warmup2,NA
907,What do you think your friend meant?,NA,It is small relative to other,images/flower-parade-dandelion.png,25,NA,NA,NA,None,2,flowers,mary,NA,1,yes,"Your friend runs far ahead of you, and you see him in the distance:",predicative,images/dandelion.png,52,weeds,I feel like there were too many trials.,1,NA,NA,higher_degree,small,English,female,NA,NA,You and your friend see the following:,1,1574702554511,NA,NA,0.8,NA,NA,congr,custom_main_text2,Your friend says: <br/><b>That dandelion is small.</b>
907,What do you think your friend meant?,NA,It is small relative to other,images/dog-parade-basic2.png,25,NA,NA,NA,None,2,dogs2,mary,NA,0,yes,"Your friend runs far ahead of you, and you see him in the distance:",predicative,images/pug.png,52,dogs,I feel like there were too many trials.,1,NA,NA,higher_degree,small,English,female,NA,NA,You and your friend see the following:,2,1574702554511,NA,NA,0.8,NA,NA,basic,custom_main_text2,Your friend says: <br/><b>That pug is small.</b>
907,What do you think your friend meant?,NA,It is big relative to other,images/bird-parade-basic.png,25,NA,NA,NA,None,2,birds,mary,NA,0,yes,"Your friend runs far ahead of you, and you see him in the distance:",predicative,images/eagle.png,52,birds,I feel like there were too many trials.,1,NA,NA,higher_degree,big,English,female,NA,NA,You and your friend see the following:,3,1574702554511,NA,NA,0.8,NA,NA,basic,custom_main_text2,Your friend says: <br/><b>That eagle is big.</b>
906,<i>What do you think Speaker A meant? </i>,NA,The Empire State Building is tall relative to other,NA,25,NA,NA,NA,no,2,NA,susan,NA,NA,yes,NA,NA,NA,34,buildings,none,NA,NA,NA,higher_degree,NA,English,female,NA,NA,In the main trials you will be asked to rephrase something a person said. The utterance will contain a word that is <i>relative</i> and your task is to figure out what it is relative to. <br /> <br /> For example: <br /><br />,1,1574700353615,1,NA,1,NA,NA,NA,comp_class_warmup,NA
906,NA,dog,NA,NA,25,warmup/great-dane.jpg,pug,This is a,no,2,dogs,susan,great dane,NA,yes,Please label the pictures below.,NA,NA,34,NA,none,NA,warmup/pug.jpg,dogs,higher_degree,NA,English,female,NA,dogs,NA,1,1574700353615,1,This is a,1,These are both,dog,NA,warmup1,NA
906,NA,pug,NA,NA,25,warmup/great-dane.jpg,pug,This is a,no,2,dogs,susan,great dane,NA,yes,Please label the pictures below.,NA,NA,34,NA,none,NA,warmup/pug.jpg,dogs,higher_degree,NA,English,female,NA,dogs,NA,1,1574700353615,2,This is a,1,These are both,great dane,NA,warmup1,NA
906,NA,chihuahua,NA,NA,25,warmup/doberman.png,chihuahua,This is a,no,2,dogs,susan,doberman,NA,yes,Please label the pictures below.,NA,NA,34,NA,none,NA,warmup/chihuahua.jpg,dogs,higher_degree,NA,English,female,NA,dogs,NA,2,1574700353615,1,This is a,1,These are both,doberman,NA,warmup1,NA
906,NA,dandelion,NA,NA,25,warmup/sunflower.png,dandelion,This is a,no,2,flowers,susan,sunflower,NA,yes,Please label the pictures below.,NA,NA,34,NA,none,NA,warmup/dandelion.jpg,flowers,higher_degree,NA,English,female,NA,flowers,NA,3,1574700353615,1,This is a,1,These are both,sun flower,NA,warmup1,NA
906,NA,dandelion,NA,NA,25,warmup/sunflower.png,dandelion,This is a,no,2,flowers,susan,sunflower,NA,yes,Please label the pictures below.,NA,NA,34,NA,none,NA,warmup/dandelion.jpg,flowers,higher_degree,NA,English,female,NA,flowers,NA,3,1574700353615,2,This is a,1,These are both,sunflower,NA,warmup1,NA
906,What do you think your friend meant?,NA,It is big relative to other,images/flower-parade-sunflower.png,25,NA,NA,NA,no,2,flowers,susan,NA,1,yes,"Your friend runs far ahead of you, and you see him in the distance:",predicative,images/sunflower.png,34,flowers,none,1,NA,NA,higher_degree,big,English,female,NA,NA,You and your friend see the following:,1,1574700353615,NA,NA,1,NA,NA,congr,custom_main_text1,Your friend says: <br/><b>That sunflower is big.</b>
906,What do you think your friend meant?,NA,It is small relative to other,images/dog-parade-basic2.png,25,NA,NA,NA,no,2,dogs2,susan,NA,0,yes,"Your friend runs far ahead of you, and you see him in the distance:",predicative,images/pug.png,34,dogs,none,1,NA,NA,higher_degree,small,English,female,NA,NA,You and your friend see the following:,2,1574700353615,NA,NA,1,NA,NA,basic,custom_main_text1,Your friend says: <br/><b>That pug is small.</b>
906,What do you think your friend meant?,NA,It is small relative to other,images/dog-parade-chihuahua.png,25,NA,NA,NA,no,2,dogs1,susan,NA,1,yes,"Your friend runs far ahead of you, and you see him in the distance:",predicative,images/chihuahua.png,34,dogs,none,1,NA,NA,higher_degree,small,English,female,NA,NA,You and your friend see the following:,3,1574700353615,NA,NA,1,NA,NA,congr,custom_main_text1,Your friend says: <br/><b>That chihuahua is small.</b>
906,NA,humming bird,NA,NA,25,warmup/eagle.jpg,hummingbird,This is a,no,2,birds,susan,eagle,NA,yes,Please label the pictures below.,NA,NA,34,NA,none,NA,warmup/colibri.jpg,birds,higher_degree,NA,English,female,NA,birds,NA,1,1574700353615,1,This is an,1,These are both,eagle,NA,warmup2,NA
906,NA,hummingbird,NA,NA,25,warmup/eagle.jpg,hummingbird,This is a,no,2,birds,susan,eagle,NA,yes,Please label the pictures below.,NA,NA,34,NA,none,NA,warmup/colibri.jpg,birds,higher_degree,NA,English,female,NA,birds,NA,1,1574700353615,2,This is an,1,These are both,eagle,NA,warmup2,NA
906,NA,oak,NA,NA,25,warmup/bonsai.jpg,redwood or sequoia (choose one),This is a,no,2,trees,susan,bonsai,NA,yes,Please label the pictures below.,NA,NA,34,NA,none,NA,warmup/sequoia.png,trees,higher_degree,NA,English,female,NA,trees,NA,2,1574700353615,1,This is a,1,These are both,bonsai,NA,warmup2,NA
906,NA,redwood,NA,NA,25,warmup/bonsai.jpg,redwood or sequoia (choose one),This is a,no,2,trees,susan,bonsai,NA,yes,Please label the pictures below.,NA,NA,34,NA,none,NA,warmup/sequoia.png,trees,higher_degree,NA,English,female,NA,trees,NA,2,1574700353615,2,This is a,1,These are both,bonsai,NA,warmup2,NA
906,NA,swordfish,NA,NA,25,warmup/goldfish.png,swordfish,This is a,no,2,fish,susan,goldfish,NA,yes,Please label the pictures below.,NA,NA,34,NA,none,NA,warmup/swordfish.jpg,fish,higher_degree,NA,English,female,NA,fish,NA,3,1574700353615,1,This is a,1,These are both,goldfish,NA,warmup2,NA
906,What do you think your friend meant?,NA,It is big relative to other,images/bird-parade-eagle.png,25,NA,NA,NA,no,2,birds,susan,NA,1,yes,"Your friend runs far ahead of you, and you see him in the distance:",predicative,images/eagle.png,34,birds,none,1,NA,NA,higher_degree,big,English,female,NA,NA,You and your friend see the following:,1,1574700353615,NA,NA,1,NA,NA,congr,custom_main_text2,Your friend says: <br/><b>That eagle is big.</b>
906,What do you think your friend meant?,NA,It is big relative to other,images/fish-parade-basic.png,25,NA,NA,NA,no,2,fish,susan,NA,0,yes,"Your friend runs far ahead of you, and you see him in the distance:",predicative,images/swordfish.png,34,fish,none,1,NA,NA,higher_degree,big,English,female,NA,NA,You and your friend see the following:,2,1574700353615,NA,NA,1,NA,NA,basic,custom_main_text2,Your friend says: <br/><b>That swordfish is big.</b>
906,What do you think your friend meant?,NA,It is small relative to other,images/tree-parade-basic.png,25,NA,NA,NA,no,2,trees,susan,NA,0,yes,"Your friend runs far ahead of you, and you see him in the distance:",predicative,images/bonsai.png,34,trees,none,1,NA,NA,higher_degree,small,English,female,NA,NA,You and your friend see the following:,3,1574700353615,NA,NA,1,NA,NA,basic,custom_main_text2,Your friend says: <br/><b>That bonsai is small.</b>
900,<i>What do you think Speaker A meant? </i>,NA,The Empire State Building is tall relative to other,NA,25,NA,NA,NA,no,2,NA,jessica,NA,NA,yes,NA,NA,NA,61,buildings,none,NA,NA,NA,higher_degree,NA,english,female,NA,NA,In the main trials you will be asked to rephrase something a person said. The utterance will contain a word that is <i>relative</i> and your task is to figure out what it is relative to. <br /> <br /> For example: <br /><br />,1,1574699404479,1,NA,1,NA,NA,NA,comp_class_warmup,NA
900,NA,dog,NA,NA,25,warmup/doberman.png,chihuahua,This is a,no,2,dogs,jessica,doberman,NA,yes,Please label the pictures below.,NA,NA,61,NA,none,NA,warmup/chihuahua.jpg,dogs,higher_degree,NA,english,female,NA,dogs,NA,1,1574699404479,1,This is a,1,These are both,dog,NA,warmup1,NA
900,NA,chihuahua,NA,NA,25,warmup/doberman.png,chihuahua,This is a,no,2,dogs,jessica,doberman,NA,yes,Please label the pictures below.,NA,NA,61,NA,none,NA,warmup/chihuahua.jpg,dogs,higher_degree,NA,english,female,NA,dogs,NA,1,1574699404479,2,This is a,1,These are both,doberman,NA,warmup1,NA
900,NA,hummingbird,NA,NA,25,warmup/eagle.jpg,hummingbird,This is a,no,2,birds,jessica,eagle,NA,yes,Please label the pictures below.,NA,NA,61,NA,none,NA,warmup/colibri.jpg,birds,higher_degree,NA,english,female,NA,birds,NA,2,1574699404479,1,This is an,1,These are both,eagle,NA,warmup1,NA
900,NA,redwood,NA,NA,25,warmup/bonsai.jpg,redwood or sequoia (choose one),This is a,no,2,trees,jessica,bonsai,NA,yes,Please label the pictures below.,NA,NA,61,NA,none,NA,warmup/sequoia.png,trees,higher_degree,NA,english,female,NA,trees,NA,3,1574699404479,1,This is a,1,These are both,bonsai,NA,warmup1,NA
900,What do you think your friend meant?,NA,It is big relative to other,images/tree-parade-basic.png,25,NA,NA,NA,no,2,trees,jessica,NA,0,yes,"Your friend runs far ahead of you, and you see him in the distance:",predicative,images/redwood.png,61,trees,none,1,NA,NA,higher_degree,big,english,female,NA,NA,You and your friend see the following:,1,1574699404479,NA,NA,1,NA,NA,basic,custom_main_text1,Your friend says: <br/><b>That redwood is big.</b>
900,What do you think your friend meant?,NA,It is big relative to other,images/bird-parade-eagle.png,25,NA,NA,NA,no,2,birds,jessica,NA,1,yes,"Your friend runs far ahead of you, and you see him in the distance:",predicative,images/eagle.png,61,eagles,none,1,NA,NA,higher_degree,big,english,female,NA,NA,You and your friend see the following:,2,1574699404479,NA,NA,1,NA,NA,congr,custom_main_text1,Your friend says: <br/><b>That eagle is big.</b>
900,What do you think your friend meant?,NA,It is small relative to other,images/dog-parade-basic.png,25,NA,NA,NA,no,2,dogs1,jessica,NA,0,yes,"Your friend runs far ahead of you, and you see him in the distance:",predicative,images/chihuahua.png,61,dogs,none,1,NA,NA,higher_degree,small,english,female,NA,NA,You and your friend see the following:,3,1574699404479,NA,NA,1,NA,NA,basic,custom_main_text1,Your friend says: <br/><b>That chihuahua is small.</b>
900,NA,blue marlin,NA,NA,25,warmup/goldfish.png,swordfish,This is a,no,2,fish,jessica,goldfish,NA,yes,Please label the pictures below.,NA,NA,61,NA,none,NA,warmup/swordfish.jpg,fish,higher_degree,NA,english,female,NA,fish,NA,1,1574699404479,1,This is a,1,These are both,goldfish,NA,warmup2,NA
900,NA,swordfish,NA,NA,25,warmup/goldfish.png,swordfish,This is a,no,2,fish,jessica,goldfish,NA,yes,Please label the pictures below.,NA,NA,61,NA,none,NA,warmup/swordfish.jpg,fish,higher_degree,NA,english,female,NA,fish,NA,1,1574699404479,2,This is a,1,These are both,goldfish,NA,warmup2,NA
900,NA,dandelion,NA,NA,25,warmup/sunflower.png,dandelion,This is a,no,2,flowers,jessica,sunflower,NA,yes,Please label the pictures below.,NA,NA,61,NA,none,NA,warmup/dandelion.jpg,flowers,higher_degree,NA,english,female,NA,flowers,NA,2,1574699404479,1,This is a,1,These are both,sunflower,NA,warmup2,NA
900,NA,pug,NA,NA,25,warmup/great-dane.jpg,pug,This is a,no,2,dogs,jessica,great dane,NA,yes,Please label the pictures below.,NA,NA,61,NA,none,NA,warmup/pug.jpg,dogs,higher_degree,NA,english,female,NA,dogs,NA,3,1574699404479,1,This is a,1,These are both,hound,NA,warmup2,NA
900,NA,pug,NA,NA,25,warmup/great-dane.jpg,pug,This is a,no,2,dogs,jessica,great dane,NA,yes,Please label the pictures below.,NA,NA,61,NA,none,NA,warmup/pug.jpg,dogs,higher_degree,NA,english,female,NA,dogs,NA,3,1574699404479,2,This is a,1,These are both,great dane,NA,warmup2,NA
900,What do you think your friend meant?,NA,It is big relative to other,images/flower-parade-sunflower.png,25,NA,NA,NA,no,2,flowers,jessica,NA,1,yes,"Your friend runs far ahead of you, and you see him in the distance:",predicative,images/sunflower.png,61,sunflowers,none,1,NA,NA,higher_degree,big,english,female,NA,NA,You and your friend see the following:,1,1574699404479,NA,NA,1,NA,NA,congr,custom_main_text2,Your friend says: <br/><b>That sunflower is big.</b>
900,What do you think your friend meant?,NA,It is small relative to other,images/dog-parade-basic2.png,25,NA,NA,NA,no,2,dogs2,jessica,NA,0,yes,"Your friend runs far ahead of you, and you see him in the distance:",predicative,images/pug.png,61,dogs,none,1,NA,NA,higher_degree,small,english,female,NA,NA,You and your friend see the following:,2,1574699404479,NA,NA,1,NA,NA,basic,custom_main_text2,Your friend says: <br/><b>That pug is small.</b>
900,What do you think your friend meant?,NA,It is small relative to other,images/fish-parade-goldfish.png,25,NA,NA,NA,no,2,fish,jessica,NA,1,yes,"Your friend runs far ahead of you, and you see him in the distance:",predicative,images/goldfish.png,61,goldfish,none,1,NA,NA,higher_degree,small,english,female,NA,NA,You and your friend see the following:,3,1574699404479,NA,NA,1,NA,NA,congr,custom_main_text2,Your friend says: <br/><b>That goldfish is small.</b>
899,<i>What do you think Speaker A meant? </i>,NA,The Empire State Building is tall relative to other,NA,25,NA,NA,NA,NA,1,NA,mary,NA,NA,yes,NA,NA,NA,45,buildings,NA,NA,NA,NA,some_college,NA,English,male,NA,NA,In the main trials you will be asked to rephrase something a person said. The utterance will contain a word that is <i>relative</i> and your task is to figure out what it is relative to. <br /> <br /> For example: <br /><br />,1,1574699239531,1,NA,1,NA,NA,NA,comp_class_warmup,NA
899,NA,toy dog,NA,NA,25,warmup/doberman.png,chihuahua,This is a,NA,1,dogs,mary,doberman,NA,yes,Please label the pictures below.,NA,NA,45,NA,NA,NA,warmup/chihuahua.jpg,dogs,some_college,NA,English,male,NA,dogs,NA,1,1574699239531,1,This is a,1,These are both,doberman,NA,warmup1,NA
899,NA,chihuahua,NA,NA,25,warmup/doberman.png,chihuahua,This is a,NA,1,dogs,mary,doberman,NA,yes,Please label the pictures below.,NA,NA,45,NA,NA,NA,warmup/chihuahua.jpg,dogs,some_college,NA,English,male,NA,dogs,NA,1,1574699239531,2,This is a,1,These are both,doberman,NA,warmup1,NA
899,NA,marlin,NA,NA,25,warmup/goldfish.png,swordfish,This is a,NA,1,fish,mary,goldfish,NA,yes,Please label the pictures below.,NA,NA,45,NA,NA,NA,warmup/swordfish.jpg,fish,some_college,NA,English,male,NA,fish,NA,2,1574699239531,1,This is a,1,These are both,goldfish,NA,warmup1,NA
899,NA,swordfish,NA,NA,25,warmup/goldfish.png,swordfish,This is a,NA,1,fish,mary,goldfish,NA,yes,Please label the pictures below.,NA,NA,45,NA,NA,NA,warmup/swordfish.jpg,fish,some_college,NA,English,male,NA,fish,NA,2,1574699239531,2,This is a,1,These are both,goldfish,NA,warmup1,NA
899,NA,hummingbird,NA,NA,25,warmup/eagle.jpg,hummingbird,This is a,NA,1,birds,mary,eagle,NA,yes,Please label the pictures below.,NA,NA,45,NA,NA,NA,warmup/colibri.jpg,birds,some_college,NA,English,male,NA,birds,NA,3,1574699239531,1,This is an,1,These are both,eagle,NA,warmup1,NA
899,What do you think your friend meant?,NA,It is small relative to other,images/dog-parade-basic.png,25,NA,NA,NA,NA,1,dogs1,mary,NA,0,yes,"Your friend runs far ahead of you, and you see him in the distance:",predicative,images/chihuahua.png,45,dogs,NA,1,NA,NA,some_college,small,English,male,NA,NA,You and your friend see the following:,1,1574699239531,NA,NA,1,NA,NA,basic,custom_main_text1,Your friend says: <br/><b>That chihuahua is small.</b>
899,What do you think your friend meant?,NA,It is big relative to other,images/bird-parade-eagle.png,25,NA,NA,NA,NA,1,birds,mary,NA,1,yes,"Your friend runs far ahead of you, and you see him in the distance:",predicative,images/eagle.png,45,birds,NA,1,NA,NA,some_college,big,English,male,NA,NA,You and your friend see the following:,2,1574699239531,NA,NA,1,NA,NA,congr,custom_main_text1,Your friend says: <br/><b>That eagle is big.</b>
899,What do you think your friend meant?,NA,It is small relative to other,images/fish-parade-goldfish.png,25,NA,NA,NA,NA,1,fish,mary,NA,1,yes,"Your friend runs far ahead of you, and you see him in the distance:",predicative,images/goldfish.png,45,fish,NA,1,NA,NA,some_college,small,English,male,NA,NA,You and your friend see the following:,3,1574699239531,NA,NA,1,NA,NA,congr,custom_main_text1,Your friend says: <br/><b>That goldfish is small.</b>
899,NA,redwood,NA,NA,25,warmup/bonsai.jpg,redwood or sequoia (choose one),This is a,NA,1,trees,mary,bonsai,NA,yes,Please label the pictures below.,NA,NA,45,NA,NA,NA,warmup/sequoia.png,trees,some_college,NA,English,male,NA,trees,NA,1,1574699239531,1,This is a,1,These are both,bonzai,NA,warmup2,NA
899,NA,redwood,NA,NA,25,warmup/bonsai.jpg,redwood or sequoia (choose one),This is a,NA,1,trees,mary,bonsai,NA,yes,Please label the pictures below.,NA,NA,45,NA,NA,NA,warmup/sequoia.png,trees,some_college,NA,English,male,NA,trees,NA,1,1574699239531,2,This is a,1,These are both,bonsai,NA,warmup2,NA
899,NA,pug,NA,NA,25,warmup/great-dane.jpg,pug,This is a,NA,1,dogs,mary,great dane,NA,yes,Please label the pictures below.,NA,NA,45,NA,NA,NA,warmup/pug.jpg,dogs,some_college,NA,English,male,NA,dogs,NA,2,1574699239531,1,This is a,1,These are both,black dog,NA,warmup2,NA
899,NA,pug,NA,NA,25,warmup/great-dane.jpg,pug,This is a,NA,1,dogs,mary,great dane,NA,yes,Please label the pictures below.,NA,NA,45,NA,NA,NA,warmup/pug.jpg,dogs,some_college,NA,English,male,NA,dogs,NA,2,1574699239531,2,This is a,1,These are both,great dane,NA,warmup2,NA
899,NA,dandelion,NA,NA,25,warmup/sunflower.png,dandelion,This is a,NA,1,flowers,mary,sunflower,NA,yes,Please label the pictures below.,NA,NA,45,NA,NA,NA,warmup/dandelion.jpg,flowers,some_college,NA,English,male,NA,flowers,NA,3,1574699239531,1,This is a,1,These are both,sunflower,NA,warmup2,NA
899,What do you think your friend meant?,NA,It is big relative to other,images/tree-parade-basic.png,25,NA,NA,NA,NA,1,trees,mary,NA,0,yes,"Your friend runs far ahead of you, and you see him in the distance:",predicative,images/redwood.png,45,trees,NA,1,NA,NA,some_college,big,English,male,NA,NA,You and your friend see the following:,1,1574699239531,NA,NA,1,NA,NA,basic,custom_main_text2,Your friend says: <br/><b>That redwood is big.</b>
899,What do you think your friend meant?,NA,It is big relative to other,images/dog-parade-basic2.png,25,NA,NA,NA,NA,1,dogs2,mary,NA,0,yes,"Your friend runs far ahead of you, and you see him in the distance:",predicative,images/great-dane.png,45,dogs,NA,1,NA,NA,some_college,big,English,male,NA,NA,You and your friend see the following:,2,1574699239531,NA,NA,1,NA,NA,basic,custom_main_text2,Your friend says: <br/><b>That great dane is big.</b>
899,What do you think your friend meant?,NA,It is small relative to other,images/flower-parade-dandelion.png,25,NA,NA,NA,NA,1,flowers,mary,NA,1,yes,"Your friend runs far ahead of you, and you see him in the distance:",predicative,images/dandelion.png,45,flowers,NA,1,NA,NA,some_college,small,English,male,NA,NA,You and your friend see the following:,3,1574699239531,NA,NA,1,NA,NA,congr,custom_main_text2,Your friend says: <br/><b>That dandelion is small.</b>
896,<i>What do you think Speaker A meant? </i>,NA,The Empire State Building is tall relative to other,NA,25,NA,NA,NA,no,1,NA,jessica,NA,NA,yes,NA,NA,NA,29,buildings,none,NA,NA,NA,graduated_high_school,NA,english,male,NA,NA,In the main trials you will be asked to rephrase something a person said. The utterance will contain a word that is <i>relative</i> and your task is to figure out what it is relative to. <br /> <br /> For example: <br /><br />,1,1574698866524,1,NA,1,NA,NA,NA,comp_class_warmup,NA
896,NA,pug,NA,NA,25,warmup/great-dane.jpg,pug,This is a,no,1,dogs,jessica,great dane,NA,yes,Please label the pictures below.,NA,NA,29,NA,none,NA,warmup/pug.jpg,dog,graduated_high_school,NA,english,male,NA,dogs,NA,1,1574698866524,1,This is a,1,These are both,great dane,NA,warmup1,NA
896,NA,pug,NA,NA,25,warmup/great-dane.jpg,pug,This is a,no,1,dogs,jessica,great dane,NA,yes,Please label the pictures below.,NA,NA,29,NA,none,NA,warmup/pug.jpg,dogs,graduated_high_school,NA,english,male,NA,dogs,NA,1,1574698866524,2,This is a,1,These are both,great dane,NA,warmup1,NA
896,NA,hummingbird,NA,NA,25,warmup/eagle.jpg,hummingbird,This is a,no,1,birds,jessica,eagle,NA,yes,Please label the pictures below.,NA,NA,29,NA,none,NA,warmup/colibri.jpg,birds,graduated_high_school,NA,english,male,NA,birds,NA,2,1574698866524,1,This is an,1,These are both,eagle,NA,warmup1,NA
896,NA,chahfa,NA,NA,25,warmup/doberman.png,chihuahua,This is a,no,1,dogs,jessica,doberman,NA,yes,Please label the pictures below.,NA,NA,29,NA,none,NA,warmup/chihuahua.jpg,dogs,graduated_high_school,NA,english,male,NA,dogs,NA,3,1574698866524,1,This is a,1,These are both,dane,NA,warmup1,NA
896,NA,chihuahua,NA,NA,25,warmup/doberman.png,chihuahua,This is a,no,1,dogs,jessica,doberman,NA,yes,Please label the pictures below.,NA,NA,29,NA,none,NA,warmup/chihuahua.jpg,dogs,graduated_high_school,NA,english,male,NA,dogs,NA,3,1574698866524,2,This is a,1,These are both,doberman,NA,warmup1,NA
896,What do you think your friend meant?,NA,It is big relative to other,images/dog-parade-great-dane.png,25,NA,NA,NA,no,1,dogs2,jessica,NA,1,yes,"Your friend runs far ahead of you, and you see him in the distance:",predicative,images/great-dane.png,29,dogs,none,1,NA,NA,graduated_high_school,big,english,male,NA,NA,You and your friend see the following:,1,1574698866524,NA,NA,1,NA,NA,congr,custom_main_text1,Your friend says: <br/><b>That great dane is big.</b>
896,What do you think your friend meant?,NA,It is big relative to other,images/dog-parade-basic.png,25,NA,NA,NA,no,1,dogs1,jessica,NA,0,yes,"Your friend runs far ahead of you, and you see him in the distance:",predicative,images/doberman.png,29,dogs,none,1,NA,NA,graduated_high_school,big,english,male,NA,NA,You and your friend see the following:,2,1574698866524,NA,NA,1,NA,NA,basic,custom_main_text1,Your friend says: <br/><b>That doberman is big.</b>
896,What do you think your friend meant?,NA,It is small relative to other,images/bird-parade-hummingbird.png,25,NA,NA,NA,no,1,birds,jessica,NA,1,yes,"Your friend runs far ahead of you, and you see him in the distance:",predicative,images/hummingbird.png,29,birds,none,1,NA,NA,graduated_high_school,small,english,male,NA,NA,You and your friend see the following:,3,1574698866524,NA,NA,1,NA,NA,congr,custom_main_text1,Your friend says: <br/><b>That hummingbird is small.</b>
896,NA,swordfish,NA,NA,25,warmup/goldfish.png,swordfish,This is a,no,1,fish,jessica,goldfish,NA,yes,Please label the pictures below.,NA,NA,29,NA,none,NA,warmup/swordfish.jpg,fish,graduated_high_school,NA,english,male,NA,fish,NA,1,1574698866524,1,This is a,1,These are both,goldfish,NA,warmup2,NA
896,NA,redwood,NA,NA,25,warmup/bonsai.jpg,redwood or sequoia (choose one),This is a,no,1,trees,jessica,bonsai,NA,yes,Please label the pictures below.,NA,NA,29,NA,none,NA,warmup/sequoia.png,trees,graduated_high_school,NA,english,male,NA,trees,NA,2,1574698866524,1,This is a,1,These are both,bonsai,NA,warmup2,NA
896,NA,dendelion,NA,NA,25,warmup/sunflower.png,dandelion,This is a,no,1,flowers,jessica,sunflower,NA,yes,Please label the pictures below.,NA,NA,29,NA,none,NA,warmup/dandelion.jpg,flowers,graduated_high_school,NA,english,male,NA,flowers,NA,3,1574698866524,1,This is a,1,These are both,sunflower,NA,warmup2,NA
896,NA,dandelion,NA,NA,25,warmup/sunflower.png,dandelion,This is a,no,1,flowers,jessica,sunflower,NA,yes,Please label the pictures below.,NA,NA,29,NA,none,NA,warmup/dandelion.jpg,flowers,graduated_high_school,NA,english,male,NA,flowers,NA,3,1574698866524,2,This is a,1,These are both,sunflower,NA,warmup2,NA
896,What do you think your friend meant?,NA,It is small relative to other,images/flower-parade-basic.png,25,NA,NA,NA,no,1,flowers,jessica,NA,0,yes,"Your friend runs far ahead of you, and you see him in the distance:",predicative,images/dandelion.png,29,flowers,none,1,NA,NA,graduated_high_school,small,english,male,NA,NA,You and your friend see the following:,1,1574698866524,NA,NA,1,NA,NA,basic,custom_main_text2,Your friend says: <br/><b>That dandelion is small.</b>
896,What do you think your friend meant?,NA,It is big relative to other,images/tree-parade-redwood.png,25,NA,NA,NA,no,1,trees,jessica,NA,1,yes,"Your friend runs far ahead of you, and you see him in the distance:",predicative,images/redwood.png,29,trees,none,1,NA,NA,graduated_high_school,big,english,male,NA,NA,You and your friend see the following:,2,1574698866524,NA,NA,1,NA,NA,congr,custom_main_text2,Your friend says: <br/><b>That redwood is big.</b>
896,What do you think your friend meant?,NA,It is small relative to other,images/fish-parade-basic.png,25,NA,NA,NA,no,1,fish,jessica,NA,0,yes,"Your friend runs far ahead of you, and you see him in the distance:",predicative,images/goldfish.png,29,fish,none,1,NA,NA,graduated_high_school,small,english,male,NA,NA,You and your friend see the following:,3,1574698866524,NA,NA,1,NA,NA,basic,custom_main_text2,Your friend says: <br/><b>That goldfish is small.</b>
894,<i>What do you think Speaker A meant? </i>,NA,The Empire State Building is tall relative to other,NA,25,NA,NA,NA,NA,1,NA,margaret,NA,NA,yes,NA,NA,NA,25,buildings,NA,NA,NA,NA,some_college,NA,English,female,NA,NA,In the main trials you will be asked to rephrase something a person said. The utterance will contain a word that is <i>relative</i> and your task is to figure out what it is relative to. <br /> <br /> For example: <br /><br />,1,1574698597410,1,NA,0.8,NA,NA,NA,comp_class_warmup,NA
894,NA,oak,NA,NA,25,warmup/bonsai.jpg,redwood or sequoia (choose one),This is a,NA,1,trees,margaret,bonsai,NA,yes,Please label the pictures below.,NA,NA,25,NA,NA,NA,warmup/sequoia.png,trees,some_college,NA,English,female,NA,trees,NA,1,1574698597410,1,This is a,0.8,These are both,bonsai,NA,warmup1,NA
894,NA,redwood,NA,NA,25,warmup/bonsai.jpg,redwood or sequoia (choose one),This is a,NA,1,trees,margaret,bonsai,NA,yes,Please label the pictures below.,NA,NA,25,NA,NA,NA,warmup/sequoia.png,trees,some_college,NA,English,female,NA,trees,NA,1,1574698597410,2,This is a,0.8,These are both,bonsai,NA,warmup1,NA
894,NA,hummingbird,NA,NA,25,warmup/eagle.jpg,hummingbird,This is a,NA,1,birds,margaret,eagle,NA,yes,Please label the pictures below.,NA,NA,25,NA,NA,NA,warmup/colibri.jpg,birds,some_college,NA,English,female,NA,birds,NA,2,1574698597410,1,This is an,0.8,These are both,eagle,NA,warmup1,NA
894,NA,dandelion,NA,NA,25,warmup/sunflower.png,dandelion,This is a,NA,1,flowers,margaret,sunflower,NA,yes,Please label the pictures below.,NA,NA,25,NA,NA,NA,warmup/dandelion.jpg,flowers,some_college,NA,English,female,NA,flowers,NA,3,1574698597410,1,This is a,0.8,These are both,sunflower,NA,warmup1,NA
894,What do you think your friend meant?,NA,It is big relative to other,images/tree-parade-basic.png,25,NA,NA,NA,NA,1,trees,margaret,NA,0,yes,"Your friend runs far ahead of you, and you see him in the distance:",predicative,images/redwood.png,25,trees,NA,1,NA,NA,some_college,big,English,female,NA,NA,You and your friend see the following:,1,1574698597410,NA,NA,0.8,NA,NA,basic,custom_main_text1,Your friend says: <br/><b>That redwood is big.</b>
894,What do you think your friend meant?,NA,It is small relative to other,images/flower-parade-basic.png,25,NA,NA,NA,NA,1,flowers,margaret,NA,0,yes,"Your friend runs far ahead of you, and you see him in the distance:",predicative,images/dandelion.png,25,flowers,NA,1,NA,NA,some_college,small,English,female,NA,NA,You and your friend see the following:,2,1574698597410,NA,NA,0.8,NA,NA,basic,custom_main_text1,Your friend says: <br/><b>That dandelion is small.</b>
894,What do you think your friend meant?,NA,It is small relative to other,images/bird-parade-hummingbird.png,25,NA,NA,NA,NA,1,birds,margaret,NA,1,yes,"Your friend runs far ahead of you, and you see him in the distance:",predicative,images/hummingbird.png,25,birds,NA,1,NA,NA,some_college,small,English,female,NA,NA,You and your friend see the following:,3,1574698597410,NA,NA,0.8,NA,NA,congr,custom_main_text1,Your friend says: <br/><b>That hummingbird is small.</b>
894,NA,chihuahua,NA,NA,25,warmup/doberman.png,chihuahua,This is a,NA,1,dogs,margaret,doberman,NA,yes,Please label the pictures below.,NA,NA,25,NA,NA,NA,warmup/chihuahua.jpg,dogs,some_college,NA,English,female,NA,dogs,NA,1,1574698597410,1,This is a,0.8,These are both,great dane,NA,warmup2,NA
894,NA,chihuahua,NA,NA,25,warmup/doberman.png,chihuahua,This is a,NA,1,dogs,margaret,doberman,NA,yes,Please label the pictures below.,NA,NA,25,NA,NA,NA,warmup/chihuahua.jpg,dogs,some_college,NA,English,female,NA,dogs,NA,1,1574698597410,2,This is a,0.8,These are both,doberman,NA,warmup2,NA
894,NA,pug,NA,NA,25,warmup/great-dane.jpg,pug,This is a,NA,1,dogs,margaret,great dane,NA,yes,Please label the pictures below.,NA,NA,25,NA,NA,NA,warmup/pug.jpg,dogs,some_college,NA,English,female,NA,dogs,NA,2,1574698597410,1,This is a,0.8,These are both,shepherd,NA,warmup2,NA
894,NA,pug,NA,NA,25,warmup/great-dane.jpg,pug,This is a,NA,1,dogs,margaret,great dane,NA,yes,Please label the pictures below.,NA,NA,25,NA,NA,NA,warmup/pug.jpg,dogs,some_college,NA,English,female,NA,dogs,NA,2,1574698597410,2,This is a,0.8,These are both,great dane,NA,warmup2,NA
894,NA,swordfish,NA,NA,25,warmup/goldfish.png,swordfish,This is a,NA,1,fish,margaret,goldfish,NA,yes,Please label the pictures below.,NA,NA,25,NA,NA,NA,warmup/swordfish.jpg,fish,some_college,NA,English,female,NA,fish,NA,3,1574698597410,1,This is a,0.8,These are both,goldfish,NA,warmup2,NA
894,What do you think your friend meant?,NA,It is small relative to other,images/dog-parade-chihuahua.png,25,NA,NA,NA,NA,1,dogs1,margaret,NA,1,yes,"Your friend runs far ahead of you, and you see him in the distance:",predicative,images/chihuahua.png,25,dogs,NA,1,NA,NA,some_college,small,English,female,NA,NA,You and your friend see the following:,1,1574698597410,NA,NA,0.8,NA,NA,congr,custom_main_text2,Your friend says: <br/><b>That chihuahua is small.</b>
894,What do you think your friend meant?,NA,It is big relative to other,images/dog-parade-great-dane.png,25,NA,NA,NA,NA,1,dogs2,margaret,NA,1,yes,"Your friend runs far ahead of you, and you see him in the distance:",predicative,images/great-dane.png,25,dogs,NA,1,NA,NA,some_college,big,English,female,NA,NA,You and your friend see the following:,2,1574698597410,NA,NA,0.8,NA,NA,congr,custom_main_text2,Your friend says: <br/><b>That great dane is big.</b>
894,What do you think your friend meant?,NA,It is big relative to other,images/fish-parade-basic.png,25,NA,NA,NA,NA,1,fish,margaret,NA,0,yes,"Your friend runs far ahead of you, and you see him in the distance:",predicative,images/swordfish.png,25,fish,NA,1,NA,NA,some_college,big,English,female,NA,NA,You and your friend see the following:,3,1574698597410,NA,NA,0.8,NA,NA,basic,custom_main_text2,Your friend says: <br/><b>That swordfish is big.</b>
891,<i>What do you think Speaker A meant? </i>,NA,The Empire State Building is tall relative to other,NA,25,NA,NA,NA,no,1,NA,Barbara,NA,NA,NA,NA,NA,NA,NA,buildings,NA,NA,NA,NA,NA,NA,english,NA,NA,NA,In the main trials you will be asked to rephrase something a person said. The utterance will contain a word that is <i>relative</i> and your task is to figure out what it is relative to. <br /> <br /> For example: <br /><br />,1,1574697735897,1,NA,NA,NA,NA,NA,comp_class_warmup,NA
891,NA,tree,NA,NA,25,warmup/bonsai.jpg,redwood or sequoia (choose one),This is a,no,1,trees,Barbara,bonsai,NA,NA,Please label the pictures below.,NA,NA,NA,NA,NA,NA,warmup/sequoia.png,trees,NA,NA,english,NA,NA,trees,NA,1,1574697735897,1,This is a,NA,These are both,tree,NA,warmup1,NA
891,NA,redwood,NA,NA,25,warmup/bonsai.jpg,redwood or sequoia (choose one),This is a,no,1,trees,Barbara,bonsai,NA,NA,Please label the pictures below.,NA,NA,NA,NA,NA,NA,warmup/sequoia.png,trees,NA,NA,english,NA,NA,trees,NA,1,1574697735897,2,This is a,NA,These are both,bonsai,NA,warmup1,NA
891,NA,terrier,NA,NA,25,warmup/doberman.png,chihuahua,This is a,no,1,dogs,Barbara,doberman,NA,NA,Please label the pictures below.,NA,NA,NA,NA,NA,NA,warmup/chihuahua.jpg,dogs,NA,NA,english,NA,NA,dogs,NA,2,1574697735897,1,This is a,NA,These are both,doberman,NA,warmup1,NA
891,NA,chihuahua,NA,NA,25,warmup/doberman.png,chihuahua,This is a,no,1,dogs,Barbara,doberman,NA,NA,Please label the pictures below.,NA,NA,NA,NA,NA,NA,warmup/chihuahua.jpg,dogs,NA,NA,english,NA,NA,dogs,NA,2,1574697735897,2,This is a,NA,These are both,doberman,NA,warmup1,NA
891,NA,hummingbird,NA,NA,25,warmup/eagle.jpg,hummingbird,This is a,no,1,birds,Barbara,eagle,NA,NA,Please label the pictures below.,NA,NA,NA,NA,NA,NA,warmup/colibri.jpg,birds,NA,NA,english,NA,NA,birds,NA,3,1574697735897,1,This is an,NA,These are both,eagle,NA,warmup1,NA
891,What do you think your friend meant?,NA,It is small relative to other,images/bird-parade-basic.png,25,NA,NA,NA,no,1,birds,Barbara,NA,0,NA,"Your friend runs far ahead of you, and you see him in the distance:",predicative,images/hummingbird.png,NA,birds,NA,1,NA,NA,NA,small,english,NA,NA,NA,You and your friend see the following:,1,1574697735897,NA,NA,NA,NA,NA,basic,custom_main_text1,Your friend says: <br/><b>That hummingbird is small.</b>
891,What do you think your friend meant?,NA,It is small relative to other,images/dog-parade-chihuahua.png,25,NA,NA,NA,no,1,dogs1,Barbara,NA,1,NA,"Your friend runs far ahead of you, and you see him in the distance:",predicative,images/chihuahua.png,NA,dogs,NA,1,NA,NA,NA,small,english,NA,NA,NA,You and your friend see the following:,2,1574697735897,NA,NA,NA,NA,NA,congr,custom_main_text1,Your friend says: <br/><b>That chihuahua is small.</b>
891,What do you think your friend meant?,NA,It is big relative to other,images/tree-parade-basic.png,25,NA,NA,NA,no,1,trees,Barbara,NA,0,NA,"Your friend runs far ahead of you, and you see him in the distance:",predicative,images/redwood.png,NA,trees,NA,1,NA,NA,NA,big,english,NA,NA,NA,You and your friend see the following:,3,1574697735897,NA,NA,NA,NA,NA,basic,custom_main_text1,Your friend says: <br/><b>That redwood is big.</b>
891,NA,marlin,NA,NA,25,warmup/goldfish.png,swordfish,This is a,no,1,fish,Barbara,goldfish,NA,NA,Please label the pictures below.,NA,NA,NA,NA,NA,NA,warmup/swordfish.jpg,fish,NA,NA,english,NA,NA,fish,NA,1,1574697735897,1,This is a,NA,These are both,goldfish,NA,warmup2,NA
891,NA,swordfish,NA,NA,25,warmup/goldfish.png,swordfish,This is a,no,1,fish,Barbara,goldfish,NA,NA,Please label the pictures below.,NA,NA,NA,NA,NA,NA,warmup/swordfish.jpg,fish,NA,NA,english,NA,NA,fish,NA,1,1574697735897,2,This is a,NA,These are both,goldfish,NA,warmup2,NA
891,NA,pug,NA,NA,25,warmup/great-dane.jpg,pug,This is a,no,1,dogs,Barbara,great dane,NA,NA,Please label the pictures below.,NA,NA,NA,NA,NA,NA,warmup/pug.jpg,dogs,NA,NA,english,NA,NA,dogs,NA,2,1574697735897,1,This is a,NA,These are both,lab,NA,warmup2,NA
891,NA,pug,NA,NA,25,warmup/great-dane.jpg,pug,This is a,no,1,dogs,Barbara,great dane,NA,NA,Please label the pictures below.,NA,NA,NA,NA,NA,NA,warmup/pug.jpg,dogs,NA,NA,english,NA,NA,dogs,NA,2,1574697735897,2,This is a,NA,These are both,great dane,NA,warmup2,NA
891,NA,daisy,NA,NA,25,warmup/sunflower.png,dandelion,This is a,no,1,flowers,Barbara,sunflower,NA,NA,Please label the pictures below.,NA,NA,NA,NA,NA,NA,warmup/dandelion.jpg,flowers,NA,NA,english,NA,NA,flowers,NA,3,1574697735897,1,This is a,NA,These are both,sunflower,NA,warmup2,NA
891,NA,dandelion,NA,NA,25,warmup/sunflower.png,dandelion,This is a,no,1,flowers,Barbara,sunflower,NA,NA,Please label the pictures below.,NA,NA,NA,NA,NA,NA,warmup/dandelion.jpg,flowers,NA,NA,english,NA,NA,flowers,NA,3,1574697735897,2,This is a,NA,These are both,sunflower,NA,warmup2,NA
891,What do you think your friend meant?,NA,It is big relative to other,images/fish-parade-swordfish.png,25,NA,NA,NA,no,1,fish,Barbara,NA,1,NA,"Your friend runs far ahead of you, and you see him in the distance:",predicative,images/swordfish.png,NA,fish,NA,1,NA,NA,NA,big,english,NA,NA,NA,You and your friend see the following:,1,1574697735897,NA,NA,NA,NA,NA,congr,custom_main_text2,Your friend says: <br/><b>That swordfish is big.</b>
891,What do you think your friend meant?,NA,It is small relative to other,images/flower-parade-basic.png,25,NA,NA,NA,no,1,flowers,Barbara,NA,0,NA,"Your friend runs far ahead of you, and you see him in the distance:",predicative,images/dandelion.png,NA,flowers,NA,1,NA,NA,NA,small,english,NA,NA,NA,You and your friend see the following:,2,1574697735897,NA,NA,NA,NA,NA,basic,custom_main_text2,Your friend says: <br/><b>That dandelion is small.</b>
891,What do you think your friend meant?,NA,It is big relative to other,images/dog-parade-great-dane.png,25,NA,NA,NA,no,1,dogs2,Barbara,NA,1,NA,"Your friend runs far ahead of you, and you see him in the distance:",predicative,images/great-dane.png,NA,dogs,NA,1,NA,NA,NA,big,english,NA,NA,NA,You and your friend see the following:,3,1574697735897,NA,NA,NA,NA,NA,congr,custom_main_text2,Your friend says: <br/><b>That great dane is big.</b>
890,<i>What do you think Speaker A meant? </i>,NA,The Empire State Building is tall relative to other,NA,25,NA,NA,NA,No,1,NA,barbara,NA,NA,yes,NA,NA,NA,31,buildings,NA,NA,NA,NA,some_college,NA,English,female,NA,NA,In the main trials you will be asked to rephrase something a person said. The utterance will contain a word that is <i>relative</i> and your task is to figure out what it is relative to. <br /> <br /> For example: <br /><br />,1,1574697632594,1,NA,2,NA,NA,NA,comp_class_warmup,NA
890,NA,tree,NA,NA,25,warmup/bonsai.jpg,redwood or sequoia (choose one),This is a,No,1,trees,barbara,bonsai,NA,yes,Please label the pictures below.,NA,NA,31,NA,NA,NA,warmup/sequoia.png,trees,some_college,NA,English,female,NA,trees,NA,1,1574697632594,1,This is a,2,These are both,bonsai tree,NA,warmup1,NA
890,NA,redwood,NA,NA,25,warmup/bonsai.jpg,redwood or sequoia (choose one),This is a,No,1,trees,barbara,bonsai,NA,yes,Please label the pictures below.,NA,NA,31,NA,NA,NA,warmup/sequoia.png,trees,some_college,NA,English,female,NA,trees,NA,1,1574697632594,2,This is a,2,These are both,bonsai,NA,warmup1,NA
890,NA,chihuahua,NA,NA,25,warmup/doberman.png,chihuahua,This is a,No,1,dogs,barbara,doberman,NA,yes,Please label the pictures below.,NA,NA,31,NA,NA,NA,warmup/chihuahua.jpg,dogs,some_college,NA,English,female,NA,dogs,NA,2,1574697632594,1,This is a,2,These are both,great dane,NA,warmup1,NA
890,NA,chihuahua,NA,NA,25,warmup/doberman.png,chihuahua,This is a,No,1,dogs,barbara,doberman,NA,yes,Please label the pictures below.,NA,NA,31,NA,NA,NA,warmup/chihuahua.jpg,dogs,some_college,NA,English,female,NA,dogs,NA,2,1574697632594,2,This is a,2,These are both,doberman,NA,warmup1,NA
890,NA,dandelion,NA,NA,25,warmup/sunflower.png,dandelion,This is a,No,1,flowers,barbara,sunflower,NA,yes,Please label the pictures below.,NA,NA,31,NA,NA,NA,warmup/dandelion.jpg,flowers,some_college,NA,English,female,NA,flowers,NA,3,1574697632594,1,This is a,2,These are both,sunflower,NA,warmup1,NA
890,What do you think your friend meant?,NA,It is small relative to other,images/dog-parade-basic.png,25,NA,NA,NA,No,1,dogs1,barbara,NA,0,yes,"Your friend runs far ahead of you, and you see him in the distance:",predicative,images/chihuahua.png,31,dogs,NA,1,NA,NA,some_college,small,English,female,NA,NA,You and your friend see the following:,1,1574697632594,NA,NA,2,NA,NA,basic,custom_main_text1,Your friend says: <br/><b>That chihuahua is small.</b>
890,What do you think your friend meant?,NA,It is big relative to other,images/flower-parade-sunflower.png,25,NA,NA,NA,No,1,flowers,barbara,NA,1,yes,"Your friend runs far ahead of you, and you see him in the distance:",predicative,images/sunflower.png,31,flowers,NA,1,NA,NA,some_college,big,English,female,NA,NA,You and your friend see the following:,2,1574697632594,NA,NA,2,NA,NA,congr,custom_main_text1,Your friend says: <br/><b>That sunflower is big.</b>
890,What do you think your friend meant?,NA,It is big relative to other,images/tree-parade-redwood.png,25,NA,NA,NA,No,1,trees,barbara,NA,1,yes,"Your friend runs far ahead of you, and you see him in the distance:",predicative,images/redwood.png,31,flowers,NA,1,NA,NA,some_college,big,English,female,NA,NA,You and your friend see the following:,3,1574697632594,NA,NA,2,NA,NA,congr,custom_main_text1,Your friend says: <br/><b>That redwood is big.</b>
890,NA,hummingbird,NA,NA,25,warmup/eagle.jpg,hummingbird,This is a,No,1,birds,barbara,eagle,NA,yes,Please label the pictures below.,NA,NA,31,NA,NA,NA,warmup/colibri.jpg,birds,some_college,NA,English,female,NA,birds,NA,1,1574697632594,1,This is an,2,These are both,eagle,NA,warmup2,NA
890,NA,swordfish,NA,NA,25,warmup/goldfish.png,swordfish,This is a,No,1,fish,barbara,goldfish,NA,yes,Please label the pictures below.,NA,NA,31,NA,NA,NA,warmup/swordfish.jpg,fish,some_college,NA,English,female,NA,fish,NA,2,1574697632594,1,This is a,2,These are both,goldfish,NA,warmup2,NA
890,NA,pug,NA,NA,25,warmup/great-dane.jpg,pug,This is a,No,1,dogs,barbara,great dane,NA,yes,Please label the pictures below.,NA,NA,31,NA,NA,NA,warmup/pug.jpg,dogs,some_college,NA,English,female,NA,dogs,NA,3,1574697632594,1,This is a,2,These are both,dog,NA,warmup2,NA
890,NA,pug,NA,NA,25,warmup/great-dane.jpg,pug,This is a,No,1,dogs,barbara,great dane,NA,yes,Please label the pictures below.,NA,NA,31,NA,NA,NA,warmup/pug.jpg,dogs,some_college,NA,English,female,NA,dogs,NA,3,1574697632594,2,This is a,2,These are both,great dane,NA,warmup2,NA
890,What do you think your friend meant?,NA,It is small relative to other,images/fish-parade-goldfish.png,25,NA,NA,NA,No,1,fish,barbara,NA,1,yes,"Your friend runs far ahead of you, and you see him in the distance:",predicative,images/goldfish.png,31,goldfish,NA,1,NA,NA,some_college,small,English,female,NA,NA,You and your friend see the following:,1,1574697632594,NA,NA,2,NA,NA,congr,custom_main_text2,Your friend says: <br/><b>That goldfish is small.</b>
890,What do you think your friend meant?,NA,It is small relative to other,images/dog-parade-basic2.png,25,NA,NA,NA,No,1,dogs2,barbara,NA,0,yes,"Your friend runs far ahead of you, and you see him in the distance:",predicative,images/pug.png,31,dogs,NA,1,NA,NA,some_college,small,English,female,NA,NA,You and your friend see the following:,2,1574697632594,NA,NA,2,NA,NA,basic,custom_main_text2,Your friend says: <br/><b>That pug is small.</b>
890,What do you think your friend meant?,NA,It is big relative to other,images/bird-parade-basic.png,25,NA,NA,NA,No,1,birds,barbara,NA,0,yes,"Your friend runs far ahead of you, and you see him in the distance:",predicative,images/eagle.png,31,birds,NA,1,NA,NA,some_college,big,English,female,NA,NA,You and your friend see the following:,3,1574697632594,NA,NA,2,NA,NA,basic,custom_main_text2,Your friend says: <br/><b>That eagle is big.</b>
887,<i>What do you think Speaker A meant? </i>,NA,The Empire State Building is tall relative to other,NA,25,NA,NA,NA,none,2,NA,jennifer,NA,NA,yes,NA,NA,NA,43,buildings,no,NA,NA,NA,graduated_college,NA,English,female,NA,NA,In the main trials you will be asked to rephrase something a person said. The utterance will contain a word that is <i>relative</i> and your task is to figure out what it is relative to. <br /> <br /> For example: <br /><br />,1,1574697178093,1,NA,1,NA,NA,NA,comp_class_warmup,NA
887,NA,swordfish,NA,NA,25,warmup/goldfish.png,swordfish,This is a,none,2,fish,jennifer,goldfish,NA,yes,Please label the pictures below.,NA,NA,43,NA,no,NA,warmup/swordfish.jpg,fish,graduated_college,NA,English,female,NA,fish,NA,1,1574697178093,1,This is a,1,These are both,goldfish,NA,warmup1,NA
887,NA,hummingbird,NA,NA,25,warmup/eagle.jpg,hummingbird,This is a,none,2,birds,jennifer,eagle,NA,yes,Please label the pictures below.,NA,NA,43,NA,no,NA,warmup/colibri.jpg,birds,graduated_college,NA,English,female,NA,birds,NA,2,1574697178093,1,This is an,1,These are both,eagle,NA,warmup1,NA
887,NA,pug,NA,NA,25,warmup/great-dane.jpg,pug,This is a,none,2,dogs,jennifer,great dane,NA,yes,Please label the pictures below.,NA,NA,43,NA,no,NA,warmup/pug.jpg,dogs,graduated_college,NA,English,female,NA,dogs,NA,3,1574697178093,1,This is a,1,These are both,doberman,NA,warmup1,NA
887,NA,pug,NA,NA,25,warmup/great-dane.jpg,pug,This is a,none,2,dogs,jennifer,great dane,NA,yes,Please label the pictures below.,NA,NA,43,NA,no,NA,warmup/pug.jpg,dogs,graduated_college,NA,English,female,NA,dogs,NA,3,1574697178093,2,This is a,1,These are both,great dane,NA,warmup1,NA
887,What do you think your friend meant?,NA,It is small relative to other,images/fish-parade-basic.png,25,NA,NA,NA,none,2,fish,jennifer,NA,0,yes,"Your friend runs far ahead of you, and you see him in the distance:",predicative,images/goldfish.png,43,fish,no,1,NA,NA,graduated_college,small,English,female,NA,NA,You and your friend see the following:,1,1574697178093,NA,NA,1,NA,NA,basic,custom_main_text1,Your friend says: <br/><b>That goldfish is small.</b>
887,What do you think your friend meant?,NA,It is small relative to other,images/dog-parade-basic2.png,25,NA,NA,NA,none,2,dogs2,jennifer,NA,0,yes,"Your friend runs far ahead of you, and you see him in the distance:",predicative,images/pug.png,43,dogs,no,1,NA,NA,graduated_college,small,English,female,NA,NA,You and your friend see the following:,2,1574697178093,NA,NA,1,NA,NA,basic,custom_main_text1,Your friend says: <br/><b>That pug is small.</b>
887,What do you think your friend meant?,NA,It is big relative to other,images/bird-parade-basic.png,25,NA,NA,NA,none,2,birds,jennifer,NA,0,yes,"Your friend runs far ahead of you, and you see him in the distance:",predicative,images/eagle.png,43,birds,no,1,NA,NA,graduated_college,big,English,female,NA,NA,You and your friend see the following:,3,1574697178093,NA,NA,1,NA,NA,basic,custom_main_text1,Your friend says: <br/><b>That eagle is big.</b>
887,NA,chiuaua,NA,NA,25,warmup/doberman.png,chihuahua,This is a,none,2,dogs,jennifer,doberman,NA,yes,Please label the pictures below.,NA,NA,43,NA,no,NA,warmup/chihuahua.jpg,dogs,graduated_college,NA,English,female,NA,dogs,NA,1,1574697178093,1,This is a,1,These are both,doberman,NA,warmup2,NA
887,NA,chihuahua,NA,NA,25,warmup/doberman.png,chihuahua,This is a,none,2,dogs,jennifer,doberman,NA,yes,Please label the pictures below.,NA,NA,43,NA,no,NA,warmup/chihuahua.jpg,dogs,graduated_college,NA,English,female,NA,dogs,NA,1,1574697178093,2,This is a,1,These are both,doberman,NA,warmup2,NA
887,NA,dandelion,NA,NA,25,warmup/sunflower.png,dandelion,This is a,none,2,flowers,jennifer,sunflower,NA,yes,Please label the pictures below.,NA,NA,43,NA,no,NA,warmup/dandelion.jpg,flowers,graduated_college,NA,English,female,NA,flowers,NA,2,1574697178093,1,This is a,1,These are both,sunflower,NA,warmup2,NA
887,NA,oak,NA,NA,25,warmup/bonsai.jpg,redwood or sequoia (choose one),This is a,none,2,trees,jennifer,bonsai,NA,yes,Please label the pictures below.,NA,NA,43,NA,no,NA,warmup/sequoia.png,trees,graduated_college,NA,English,female,NA,trees,NA,3,1574697178093,1,This is a,1,These are both,bonsai,NA,warmup2,NA
887,NA,redwood,NA,NA,25,warmup/bonsai.jpg,redwood or sequoia (choose one),This is a,none,2,trees,jennifer,bonsai,NA,yes,Please label the pictures below.,NA,NA,43,NA,no,NA,warmup/sequoia.png,trees,graduated_college,NA,English,female,NA,trees,NA,3,1574697178093,2,This is a,1,These are both,bonsai,NA,warmup2,NA
887,What do you think your friend meant?,NA,It is big relative to other,images/flower-parade-sunflower.png,25,NA,NA,NA,none,2,flowers,jennifer,NA,1,yes,"Your friend runs far ahead of you, and you see him in the distance:",predicative,images/sunflower.png,43,sunflowers,no,1,NA,NA,graduated_college,big,English,female,NA,NA,You and your friend see the following:,1,1574697178093,NA,NA,1,NA,NA,congr,custom_main_text2,Your friend says: <br/><b>That sunflower is big.</b>
887,What do you think your friend meant?,NA,It is big relative to other,images/dog-parade-doberman.png,25,NA,NA,NA,none,2,dogs1,jennifer,NA,1,yes,"Your friend runs far ahead of you, and you see him in the distance:",predicative,images/doberman.png,43,dobermans,no,1,NA,NA,graduated_college,big,English,female,NA,NA,You and your friend see the following:,2,1574697178093,NA,NA,1,NA,NA,congr,custom_main_text2,Your friend says: <br/><b>That doberman is big.</b>
887,What do you think your friend meant?,NA,It is small relative to other,images/tree-parade-bonsai.png,25,NA,NA,NA,none,2,trees,jennifer,NA,1,yes,"Your friend runs far ahead of you, and you see him in the distance:",predicative,images/bonsai.png,43,bonsais,no,1,NA,NA,graduated_college,small,English,female,NA,NA,You and your friend see the following:,3,1574697178093,NA,NA,1,NA,NA,congr,custom_main_text2,Your friend says: <br/><b>That bonsai is small.</b>
886,<i>What do you think Speaker A meant? </i>,NA,The Empire State Building is tall relative to other,NA,25,NA,NA,NA,None that I saw,1,NA,jennifer,NA,NA,yes,NA,NA,NA,30,buildings,NA,NA,NA,NA,graduated_college,NA,English,male,NA,NA,In the main trials you will be asked to rephrase something a person said. The utterance will contain a word that is <i>relative</i> and your task is to figure out what it is relative to. <br /> <br /> For example: <br /><br />,1,1574696985657,1,NA,1,NA,NA,NA,comp_class_warmup,NA
886,NA,chihuahua,NA,NA,25,warmup/doberman.png,chihuahua,This is a,None that I saw,1,dogs,jennifer,doberman,NA,yes,Please label the pictures below.,NA,NA,30,NA,NA,NA,warmup/chihuahua.jpg,dogs,graduated_college,NA,English,male,NA,dogs,NA,1,1574696985657,1,This is a,1,These are both,doberman,NA,warmup1,NA
886,NA,pug,NA,NA,25,warmup/great-dane.jpg,pug,This is a,None that I saw,1,dogs,jennifer,great dane,NA,yes,Please label the pictures below.,NA,NA,30,NA,NA,NA,warmup/pug.jpg,dogs,graduated_college,NA,English,male,NA,dogs,NA,2,1574696985657,1,This is a,1,These are both,great dane,NA,warmup1,NA
886,NA,hummingbird,NA,NA,25,warmup/eagle.jpg,hummingbird,This is a,None that I saw,1,birds,jennifer,eagle,NA,yes,Please label the pictures below.,NA,NA,30,NA,NA,NA,warmup/colibri.jpg,birds,graduated_college,NA,English,male,NA,birds,NA,3,1574696985657,1,This is an,1,These are both,eagle,NA,warmup1,NA
886,What do you think your friend meant?,NA,It is big relative to other,images/bird-parade-eagle.png,25,NA,NA,NA,None that I saw,1,birds,jennifer,NA,1,yes,"Your friend runs far ahead of you, and you see him in the distance:",predicative,images/eagle.png,30,birds,NA,1,NA,NA,graduated_college,big,English,male,NA,NA,You and your friend see the following:,1,1574696985657,NA,NA,1,NA,NA,congr,custom_main_text1,Your friend says: <br/><b>That eagle is big.</b>
886,What do you think your friend meant?,NA,It is small relative to other,images/dog-parade-basic.png,25,NA,NA,NA,None that I saw,1,dogs1,jennifer,NA,0,yes,"Your friend runs far ahead of you, and you see him in the distance:",predicative,images/chihuahua.png,30,dogs,NA,1,NA,NA,graduated_college,small,English,male,NA,NA,You and your friend see the following:,2,1574696985657,NA,NA,1,NA,NA,basic,custom_main_text1,Your friend says: <br/><b>That chihuahua is small.</b>
886,What do you think your friend meant?,NA,It is big relative to other,images/dog-parade-great-dane.png,25,NA,NA,NA,None that I saw,1,dogs2,jennifer,NA,1,yes,"Your friend runs far ahead of you, and you see him in the distance:",predicative,images/great-dane.png,30,dogs,NA,1,NA,NA,graduated_college,big,English,male,NA,NA,You and your friend see the following:,3,1574696985657,NA,NA,1,NA,NA,congr,custom_main_text1,Your friend says: <br/><b>That great dane is big.</b>
886,NA,swordfish,NA,NA,25,warmup/goldfish.png,swordfish,This is a,None that I saw,1,fish,jennifer,goldfish,NA,yes,Please label the pictures below.,NA,NA,30,NA,NA,NA,warmup/swordfish.jpg,fish,graduated_college,NA,English,male,NA,fish,NA,1,1574696985657,1,This is a,1,These are both,goldfish,NA,warmup2,NA
886,NA,oak tree,NA,NA,25,warmup/bonsai.jpg,redwood or sequoia (choose one),This is a,None that I saw,1,trees,jennifer,bonsai,NA,yes,Please label the pictures below.,NA,NA,30,NA,NA,NA,warmup/sequoia.png,trees,graduated_college,NA,English,male,NA,trees,NA,2,1574696985657,1,This is a,1,These are both,bisia,NA,warmup2,NA
886,NA,redwood,NA,NA,25,warmup/bonsai.jpg,redwood or sequoia (choose one),This is a,None that I saw,1,trees,jennifer,bonsai,NA,yes,Please label the pictures below.,NA,NA,30,NA,NA,NA,warmup/sequoia.png,trees,graduated_college,NA,English,male,NA,trees,NA,2,1574696985657,2,This is a,1,These are both,bonsai,NA,warmup2,NA
886,NA,dandylion,NA,NA,25,warmup/sunflower.png,dandelion,This is a,None that I saw,1,flowers,jennifer,sunflower,NA,yes,Please label the pictures below.,NA,NA,30,NA,NA,NA,warmup/dandelion.jpg,flowers,graduated_college,NA,English,male,NA,flowers,NA,3,1574696985657,1,This is a,1,These are both,sunflower,NA,warmup2,NA
886,NA,dandelion,NA,NA,25,warmup/sunflower.png,dandelion,This is a,None that I saw,1,flowers,jennifer,sunflower,NA,yes,Please label the pictures below.,NA,NA,30,NA,NA,NA,warmup/dandelion.jpg,flowers,graduated_college,NA,English,male,NA,flowers,NA,3,1574696985657,2,This is a,1,These are both,sunflower,NA,warmup2,NA
886,What do you think your friend meant?,NA,It is big relative to other,images/flower-parade-sunflower.png,25,NA,NA,NA,None that I saw,1,flowers,jennifer,NA,1,yes,"Your friend runs far ahead of you, and you see him in the distance:",predicative,images/sunflower.png,30,flowers,NA,1,NA,NA,graduated_college,big,English,male,NA,NA,You and your friend see the following:,1,1574696985657,NA,NA,1,NA,NA,congr,custom_main_text2,Your friend says: <br/><b>That sunflower is big.</b>
886,What do you think your friend meant?,NA,It is small relative to other,images/fish-parade-basic.png,25,NA,NA,NA,None that I saw,1,fish,jennifer,NA,0,yes,"Your friend runs far ahead of you, and you see him in the distance:",predicative,images/goldfish.png,30,fish,NA,1,NA,NA,graduated_college,small,English,male,NA,NA,You and your friend see the following:,2,1574696985657,NA,NA,1,NA,NA,basic,custom_main_text2,Your friend says: <br/><b>That goldfish is small.</b>
886,What do you think your friend meant?,NA,It is small relative to other,images/tree-parade-basic.png,25,NA,NA,NA,None that I saw,1,trees,jennifer,NA,0,yes,"Your friend runs far ahead of you, and you see him in the distance:",predicative,images/bonsai.png,30,trees,NA,1,NA,NA,graduated_college,small,English,male,NA,NA,You and your friend see the following:,3,1574696985657,NA,NA,1,NA,NA,basic,custom_main_text2,Your friend says: <br/><b>That bonsai is small.</b>
885,<i>What do you think Speaker A meant? </i>,NA,The Empire State Building is tall relative to other,NA,25,NA,NA,NA,no,2,NA,elizabeth,NA,NA,yes,NA,NA,NA,48,buildings,one,NA,NA,NA,some_college,NA,english,female,NA,NA,In the main trials you will be asked to rephrase something a person said. The utterance will contain a word that is <i>relative</i> and your task is to figure out what it is relative to. <br /> <br /> For example: <br /><br />,1,1574696002386,1,NA,10,NA,NA,NA,comp_class_warmup,NA
885,NA,flower,NA,NA,25,warmup/sunflower.png,dandelion,This is a,no,2,flowers,elizabeth,sunflower,NA,yes,Please label the pictures below.,NA,NA,48,NA,one,NA,warmup/dandelion.jpg,yellow,some_college,NA,english,female,NA,flowers,NA,1,1574696002386,1,This is a,10,These are both,daisey,NA,warmup1,NA
885,NA,flower,NA,NA,25,warmup/sunflower.png,dandelion,This is a,no,2,flowers,elizabeth,sunflower,NA,yes,Please label the pictures below.,NA,NA,48,NA,one,NA,warmup/dandelion.jpg,yellow,some_college,NA,english,female,NA,flowers,NA,1,1574696002386,2,This is a,10,These are both,daisey,NA,warmup1,NA
885,NA,flower,NA,NA,25,warmup/sunflower.png,dandelion,This is a,no,2,flowers,elizabeth,sunflower,NA,yes,Please label the pictures below.,NA,NA,48,NA,one,NA,warmup/dandelion.jpg,yellow,some_college,NA,english,female,NA,flowers,NA,1,1574696002386,3,This is a,10,These are both,daisey,NA,warmup1,NA
885,NA,flower,NA,NA,25,warmup/sunflower.png,dandelion,This is a,no,2,flowers,elizabeth,sunflower,NA,yes,Please label the pictures below.,NA,NA,48,NA,one,NA,warmup/dandelion.jpg,flowers,some_college,NA,english,female,NA,flowers,NA,1,1574696002386,4,This is a,10,These are both,daisey,NA,warmup1,NA
885,NA,dandilion,NA,NA,25,warmup/sunflower.png,dandelion,This is a,no,2,flowers,elizabeth,sunflower,NA,yes,Please label the pictures below.,NA,NA,48,NA,one,NA,warmup/dandelion.jpg,flowers,some_college,NA,english,female,NA,flowers,NA,1,1574696002386,5,This is a,10,These are both,sunflower,NA,warmup1,NA
885,NA,dandilion,NA,NA,25,warmup/sunflower.png,dandelion,This is a,no,2,flowers,elizabeth,sunflower,NA,yes,Please label the pictures below.,NA,NA,48,NA,one,NA,warmup/dandelion.jpg,flowers,some_college,NA,english,female,NA,flowers,NA,1,1574696002386,6,This is a,10,These are both,sunflower,NA,warmup1,NA
885,NA,dandilion,NA,NA,25,warmup/sunflower.png,dandelion,This is a,no,2,flowers,elizabeth,sunflower,NA,yes,Please label the pictures below.,NA,NA,48,NA,one,NA,warmup/dandelion.jpg,flowers,some_college,NA,english,female,NA,flowers,NA,1,1574696002386,7,This is a,10,These are both,sunflower,NA,warmup1,NA
885,NA,dandelion,NA,NA,25,warmup/sunflower.png,dandelion,This is a,no,2,flowers,elizabeth,sunflower,NA,yes,Please label the pictures below.,NA,NA,48,NA,one,NA,warmup/dandelion.jpg,flowers,some_college,NA,english,female,NA,flowers,NA,1,1574696002386,8,This is a,10,These are both,sunflower,NA,warmup1,NA
885,NA,hummingbird,NA,NA,25,warmup/eagle.jpg,hummingbird,This is a,no,2,birds,elizabeth,eagle,NA,yes,Please label the pictures below.,NA,NA,48,NA,one,NA,warmup/colibri.jpg,birds,some_college,NA,english,female,NA,birds,NA,2,1574696002386,1,This is an,10,These are both,eagle,NA,warmup1,NA
885,NA,puppy,NA,NA,25,warmup/doberman.png,chihuahua,This is a,no,2,dogs,elizabeth,doberman,NA,yes,Please label the pictures below.,NA,NA,48,NA,one,NA,warmup/chihuahua.jpg,dogs,some_college,NA,english,female,NA,dogs,NA,3,1574696002386,1,This is a,10,These are both,rochweiler,NA,warmup1,NA
885,NA,chihualua,NA,NA,25,warmup/doberman.png,chihuahua,This is a,no,2,dogs,elizabeth,doberman,NA,yes,Please label the pictures below.,NA,NA,48,NA,one,NA,warmup/chihuahua.jpg,dogs,some_college,NA,english,female,NA,dogs,NA,3,1574696002386,2,This is a,10,These are both,doberman,NA,warmup1,NA
885,NA,chihuahua,NA,NA,25,warmup/doberman.png,chihuahua,This is a,no,2,dogs,elizabeth,doberman,NA,yes,Please label the pictures below.,NA,NA,48,NA,one,NA,warmup/chihuahua.jpg,dogs,some_college,NA,english,female,NA,dogs,NA,3,1574696002386,3,This is a,10,These are both,doberman,NA,warmup1,NA
885,What do you think your friend meant?,NA,It is big relative to other,images/bird-parade-eagle.png,25,NA,NA,NA,no,2,birds,elizabeth,NA,1,yes,"Your friend runs far ahead of you, and you see him in the distance:",predicative,images/eagle.png,48,other birds,one,1,NA,NA,some_college,big,english,female,NA,NA,You and your friend see the following:,1,1574696002386,NA,NA,10,NA,NA,congr,custom_main_text1,Your friend says: <br/><b>That eagle is big.</b>
885,What do you think your friend meant?,NA,It is big relative to other,images/dog-parade-basic.png,25,NA,NA,NA,no,2,dogs1,elizabeth,NA,0,yes,"Your friend runs far ahead of you, and you see him in the distance:",predicative,images/doberman.png,48,dogs,one,1,NA,NA,some_college,big,english,female,NA,NA,You and your friend see the following:,2,1574696002386,NA,NA,10,NA,NA,basic,custom_main_text1,Your friend says: <br/><b>That doberman is big.</b>
885,What do you think your friend meant?,NA,It is small relative to other,images/flower-parade-basic.png,25,NA,NA,NA,no,2,flowers,elizabeth,NA,0,yes,"Your friend runs far ahead of you, and you see him in the distance:",predicative,images/dandelion.png,48,flowers,one,1,NA,NA,some_college,small,english,female,NA,NA,You and your friend see the following:,3,1574696002386,NA,NA,10,NA,NA,basic,custom_main_text1,Your friend says: <br/><b>That dandelion is small.</b>
885,NA,tree,NA,NA,25,warmup/bonsai.jpg,redwood or sequoia (choose one),This is a,no,2,trees,elizabeth,bonsai,NA,yes,Please label the pictures below.,NA,NA,48,NA,one,NA,warmup/sequoia.png,green,some_college,NA,english,female,NA,trees,NA,1,1574696002386,1,This is a,10,These are both,bush,NA,warmup2,NA
885,NA,redwood,NA,NA,25,warmup/bonsai.jpg,redwood or sequoia (choose one),This is a,no,2,trees,elizabeth,bonsai,NA,yes,Please label the pictures below.,NA,NA,48,NA,one,NA,warmup/sequoia.png,trees,some_college,NA,english,female,NA,trees,NA,1,1574696002386,2,This is a,10,These are both,bonsai,NA,warmup2,NA
885,NA,pug,NA,NA,25,warmup/great-dane.jpg,pug,This is a,no,2,dogs,elizabeth,great dane,NA,yes,Please label the pictures below.,NA,NA,48,NA,one,NA,warmup/pug.jpg,dogs,some_college,NA,english,female,NA,dogs,NA,2,1574696002386,1,This is a,10,These are both,greyhound,NA,warmup2,NA
885,NA,pug,NA,NA,25,warmup/great-dane.jpg,pug,This is a,no,2,dogs,elizabeth,great dane,NA,yes,Please label the pictures below.,NA,NA,48,NA,one,NA,warmup/pug.jpg,dogs,some_college,NA,english,female,NA,dogs,NA,2,1574696002386,2,This is a,10,These are both,great dane,NA,warmup2,NA
885,NA,swordfish,NA,NA,25,warmup/goldfish.png,swordfish,This is a,no,2,fish,elizabeth,goldfish,NA,yes,Please label the pictures below.,NA,NA,48,NA,one,NA,warmup/swordfish.jpg,fish,some_college,NA,english,female,NA,fish,NA,3,1574696002386,1,This is a,10,These are both,goldfish,NA,warmup2,NA
885,What do you think your friend meant?,NA,It is big relative to other,images/dog-parade-great-dane.png,25,NA,NA,NA,no,2,dogs2,elizabeth,NA,1,yes,"Your friend runs far ahead of you, and you see him in the distance:",predicative,images/great-dane.png,48,dogs,one,1,NA,NA,some_college,big,english,female,NA,NA,You and your friend see the following:,1,1574696002386,NA,NA,10,NA,NA,congr,custom_main_text2,Your friend says: <br/><b>That great dane is big.</b>
885,What do you think your friend meant?,NA,It is small relative to other,images/fish-parade-goldfish.png,25,NA,NA,NA,no,2,fish,elizabeth,NA,1,yes,"Your friend runs far ahead of you, and you see him in the distance:",predicative,images/goldfish.png,48,fish,one,1,NA,NA,some_college,small,english,female,NA,NA,You and your friend see the following:,2,1574696002386,NA,NA,10,NA,NA,congr,custom_main_text2,Your friend says: <br/><b>That goldfish is small.</b>
885,What do you think your friend meant?,NA,It is small relative to other,images/tree-parade-basic.png,25,NA,NA,NA,no,2,trees,elizabeth,NA,0,yes,"Your friend runs far ahead of you, and you see him in the distance:",predicative,images/bonsai.png,48,trees,one,1,NA,NA,some_college,small,english,female,NA,NA,You and your friend see the following:,3,1574696002386,NA,NA,10,NA,NA,basic,custom_main_text2,Your friend says: <br/><b>That bonsai is small.</b>
882,<i>What do you think Speaker A meant? </i>,NA,The Empire State Building is tall relative to other,NA,25,NA,NA,NA,"No, there were no problems.",2,NA,margaret,NA,NA,yes,NA,NA,NA,45,buildings,NA,NA,NA,NA,graduated_college,NA,English,female,NA,NA,In the main trials you will be asked to rephrase something a person said. The utterance will contain a word that is <i>relative</i> and your task is to figure out what it is relative to. <br /> <br /> For example: <br /><br />,1,1574696672034,1,NA,1,NA,NA,NA,comp_class_warmup,NA
882,NA,swordfish,NA,NA,25,warmup/goldfish.png,swordfish,This is a,"No, there were no problems.",2,fish,margaret,goldfish,NA,yes,Please label the pictures below.,NA,NA,45,NA,NA,NA,warmup/swordfish.jpg,fish,graduated_college,NA,English,female,NA,fish,NA,1,1574696672034,1,This is a,1,These are both,goldfish,NA,warmup1,NA
882,NA,dandelion,NA,NA,25,warmup/sunflower.png,dandelion,This is a,"No, there were no problems.",2,flowers,margaret,sunflower,NA,yes,Please label the pictures below.,NA,NA,45,NA,NA,NA,warmup/dandelion.jpg,flowers,graduated_college,NA,English,female,NA,flowers,NA,2,1574696672034,1,This is a,1,These are both,sunflower,NA,warmup1,NA
882,NA,chihuahua,NA,NA,25,warmup/doberman.png,chihuahua,This is a,"No, there were no problems.",2,dogs,margaret,doberman,NA,yes,Please label the pictures below.,NA,NA,45,NA,NA,NA,warmup/chihuahua.jpg,dogs,graduated_college,NA,English,female,NA,dogs,NA,3,1574696672034,1,This is a,1,These are both,doberman,NA,warmup1,NA
882,What do you think your friend meant?,NA,It is big relative to other,images/dog-parade-doberman.png,25,NA,NA,NA,"No, there were no problems.",2,dogs1,margaret,NA,1,yes,"Your friend runs far ahead of you, and you see him in the distance:",predicative,images/doberman.png,45,dogs,NA,1,NA,NA,graduated_college,big,English,female,NA,NA,You and your friend see the following:,1,1574696672034,NA,NA,1,NA,NA,congr,custom_main_text1,Your friend says: <br/><b>That doberman is big.</b>
882,What do you think your friend meant?,NA,It is small relative to other,images/flower-parade-dandelion.png,25,NA,NA,NA,"No, there were no problems.",2,flowers,margaret,NA,1,yes,"Your friend runs far ahead of you, and you see him in the distance:",predicative,images/dandelion.png,45,flowers,NA,1,NA,NA,graduated_college,small,English,female,NA,NA,You and your friend see the following:,2,1574696672034,NA,NA,1,NA,NA,congr,custom_main_text1,Your friend says: <br/><b>That dandelion is small.</b>
882,What do you think your friend meant?,NA,It is big relative to other,images/fish-parade-basic.png,25,NA,NA,NA,"No, there were no problems.",2,fish,margaret,NA,0,yes,"Your friend runs far ahead of you, and you see him in the distance:",predicative,images/swordfish.png,45,fish,NA,1,NA,NA,graduated_college,big,English,female,NA,NA,You and your friend see the following:,3,1574696672034,NA,NA,1,NA,NA,basic,custom_main_text1,Your friend says: <br/><b>That swordfish is big.</b>
882,NA,hummingbird,NA,NA,25,warmup/eagle.jpg,hummingbird,This is a,"No, there were no problems.",2,birds,margaret,eagle,NA,yes,Please label the pictures below.,NA,NA,45,NA,NA,NA,warmup/colibri.jpg,birds,graduated_college,NA,English,female,NA,birds,NA,1,1574696672034,1,This is an,1,These are both,eagle,NA,warmup2,NA
882,NA,redwood,NA,NA,25,warmup/bonsai.jpg,redwood or sequoia (choose one),This is a,"No, there were no problems.",2,trees,margaret,bonsai,NA,yes,Please label the pictures below.,NA,NA,45,NA,NA,NA,warmup/sequoia.png,trees,graduated_college,NA,English,female,NA,trees,NA,2,1574696672034,1,This is a,1,These are both,bonsai,NA,warmup2,NA
882,NA,pug,NA,NA,25,warmup/great-dane.jpg,pug,This is a,"No, there were no problems.",2,dogs,margaret,great dane,NA,yes,Please label the pictures below.,NA,NA,45,NA,NA,NA,warmup/pug.jpg,dogs,graduated_college,NA,English,female,NA,dogs,NA,3,1574696672034,1,This is a,1,These are both,greyhound,NA,warmup2,NA
882,NA,pug,NA,NA,25,warmup/great-dane.jpg,pug,This is a,"No, there were no problems.",2,dogs,margaret,great dane,NA,yes,Please label the pictures below.,NA,NA,45,NA,NA,NA,warmup/pug.jpg,dogs,graduated_college,NA,English,female,NA,dogs,NA,3,1574696672034,2,This is a,1,These are both,great dane,NA,warmup2,NA
882,What do you think your friend meant?,NA,It is small relative to other,images/bird-parade-hummingbird.png,25,NA,NA,NA,"No, there were no problems.",2,birds,margaret,NA,1,yes,"Your friend runs far ahead of you, and you see him in the distance:",predicative,images/hummingbird.png,45,birds,NA,1,NA,NA,graduated_college,small,English,female,NA,NA,You and your friend see the following:,1,1574696672034,NA,NA,1,NA,NA,congr,custom_main_text2,Your friend says: <br/><b>That hummingbird is small.</b>
882,What do you think your friend meant?,NA,It is small relative to other,images/dog-parade-basic2.png,25,NA,NA,NA,"No, there were no problems.",2,dogs2,margaret,NA,0,yes,"Your friend runs far ahead of you, and you see him in the distance:",predicative,images/pug.png,45,dogs,NA,1,NA,NA,graduated_college,small,English,female,NA,NA,You and your friend see the following:,2,1574696672034,NA,NA,1,NA,NA,basic,custom_main_text2,Your friend says: <br/><b>That pug is small.</b>
882,What do you think your friend meant?,NA,It is big relative to other,images/tree-parade-basic.png,25,NA,NA,NA,"No, there were no problems.",2,trees,margaret,NA,0,yes,"Your friend runs far ahead of you, and you see him in the distance:",predicative,images/redwood.png,45,trees,NA,1,NA,NA,graduated_college,big,English,female,NA,NA,You and your friend see the following:,3,1574696672034,NA,NA,1,NA,NA,basic,custom_main_text2,Your friend says: <br/><b>That redwood is big.</b>
879,<i>What do you think Speaker A meant? </i>,NA,The Empire State Building is tall relative to other,NA,25,NA,NA,NA,No problems at all,2,NA,linda,NA,NA,yes,NA,NA,NA,51,buildings,requires knowing breeds and classifications and spelling! Yikes.,NA,NA,NA,graduated_college,NA,English,female,NA,NA,In the main trials you will be asked to rephrase something a person said. The utterance will contain a word that is <i>relative</i> and your task is to figure out what it is relative to. <br /> <br /> For example: <br /><br />,1,1574696575632,1,NA,1.5,NA,NA,NA,comp_class_warmup,NA
879,NA,hummingbird,NA,NA,25,warmup/eagle.jpg,hummingbird,This is a,No problems at all,2,birds,linda,eagle,NA,yes,Please label the pictures below.,NA,NA,51,NA,requires knowing breeds and classifications and spelling! Yikes.,NA,warmup/colibri.jpg,birds,graduated_college,NA,English,female,NA,birds,NA,1,1574696575632,1,This is an,1.5,These are both,eagle,NA,warmup1,NA
879,NA,shark,NA,NA,25,warmup/goldfish.png,swordfish,This is a,No problems at all,2,fish,linda,goldfish,NA,yes,Please label the pictures below.,NA,NA,51,NA,requires knowing breeds and classifications and spelling! Yikes.,NA,warmup/swordfish.jpg,fish,graduated_college,NA,English,female,NA,fish,NA,2,1574696575632,1,This is a,1.5,These are both,goldfish,NA,warmup1,NA
879,NA,swordfish,NA,NA,25,warmup/goldfish.png,swordfish,This is a,No problems at all,2,fish,linda,goldfish,NA,yes,Please label the pictures below.,NA,NA,51,NA,requires knowing breeds and classifications and spelling! Yikes.,NA,warmup/swordfish.jpg,fish,graduated_college,NA,English,female,NA,fish,NA,2,1574696575632,2,This is a,1.5,These are both,goldfish,NA,warmup1,NA
879,NA,dandilion,NA,NA,25,warmup/sunflower.png,dandelion,This is a,No problems at all,2,flowers,linda,sunflower,NA,yes,Please label the pictures below.,NA,NA,51,NA,requires knowing breeds and classifications and spelling! Yikes.,NA,warmup/dandelion.jpg,flowers,graduated_college,NA,English,female,NA,flowers,NA,3,1574696575632,1,This is a,1.5,These are both,sunflower,NA,warmup1,NA
879,NA,dandelion,NA,NA,25,warmup/sunflower.png,dandelion,This is a,No problems at all,2,flowers,linda,sunflower,NA,yes,Please label the pictures below.,NA,NA,51,NA,requires knowing breeds and classifications and spelling! Yikes.,NA,warmup/dandelion.jpg,flowers,graduated_college,NA,English,female,NA,flowers,NA,3,1574696575632,2,This is a,1.5,These are both,sunflower,NA,warmup1,NA
879,What do you think your friend meant?,NA,It is big relative to other,images/bird-parade-basic.png,25,NA,NA,NA,No problems at all,2,birds,linda,NA,0,yes,"Your friend runs far ahead of you, and you see him in the distance:",predicative,images/eagle.png,51,birds,requires knowing breeds and classifications and spelling! Yikes.,1,NA,NA,graduated_college,big,English,female,NA,NA,You and your friend see the following:,1,1574696575632,NA,NA,1.5,NA,NA,basic,custom_main_text1,Your friend says: <br/><b>That eagle is big.</b>
879,What do you think your friend meant?,NA,It is small relative to other,images/flower-parade-basic.png,25,NA,NA,NA,No problems at all,2,flowers,linda,NA,0,yes,"Your friend runs far ahead of you, and you see him in the distance:",predicative,images/dandelion.png,51,flowers,requires knowing breeds and classifications and spelling! Yikes.,1,NA,NA,graduated_college,small,English,female,NA,NA,You and your friend see the following:,2,1574696575632,NA,NA,1.5,NA,NA,basic,custom_main_text1,Your friend says: <br/><b>That dandelion is small.</b>
879,What do you think your friend meant?,NA,It is small relative to other,images/fish-parade-basic.png,25,NA,NA,NA,No problems at all,2,fish,linda,NA,0,yes,"Your friend runs far ahead of you, and you see him in the distance:",predicative,images/goldfish.png,51,fish,requires knowing breeds and classifications and spelling! Yikes.,1,NA,NA,graduated_college,small,English,female,NA,NA,You and your friend see the following:,3,1574696575632,NA,NA,1.5,NA,NA,basic,custom_main_text1,Your friend says: <br/><b>That goldfish is small.</b>
879,NA,pug,NA,NA,25,warmup/great-dane.jpg,pug,This is a,No problems at all,2,dogs,linda,great dane,NA,yes,Please label the pictures below.,NA,NA,51,NA,requires knowing breeds and classifications and spelling! Yikes.,NA,warmup/pug.jpg,dogs,graduated_college,NA,English,female,NA,dogs,NA,1,1574696575632,1,This is a,1.5,These are both,great dane,NA,warmup2,NA
879,NA,chihuahua,NA,NA,25,warmup/doberman.png,chihuahua,This is a,No problems at all,2,dogs,linda,doberman,NA,yes,Please label the pictures below.,NA,NA,51,NA,requires knowing breeds and classifications and spelling! Yikes.,NA,warmup/chihuahua.jpg,dogs,graduated_college,NA,English,female,NA,dogs,NA,2,1574696575632,1,This is a,1.5,These are both,doberman pincers,NA,warmup2,NA
879,NA,chihuahua,NA,NA,25,warmup/doberman.png,chihuahua,This is a,No problems at all,2,dogs,linda,doberman,NA,yes,Please label the pictures below.,NA,NA,51,NA,requires knowing breeds and classifications and spelling! Yikes.,NA,warmup/chihuahua.jpg,dogs,graduated_college,NA,English,female,NA,dogs,NA,2,1574696575632,2,This is a,1.5,These are both,doberman,NA,warmup2,NA
879,NA,redwood,NA,NA,25,warmup/bonsai.jpg,redwood or sequoia (choose one),This is a,No problems at all,2,trees,linda,bonsai,NA,yes,Please label the pictures below.,NA,NA,51,NA,requires knowing breeds and classifications and spelling! Yikes.,NA,warmup/sequoia.png,tree,graduated_college,NA,English,female,NA,trees,NA,3,1574696575632,1,This is a,1.5,These are both,bonsai,NA,warmup2,NA
879,NA,redwood,NA,NA,25,warmup/bonsai.jpg,redwood or sequoia (choose one),This is a,No problems at all,2,trees,linda,bonsai,NA,yes,Please label the pictures below.,NA,NA,51,NA,requires knowing breeds and classifications and spelling! Yikes.,NA,warmup/sequoia.png,trees,graduated_college,NA,English,female,NA,trees,NA,3,1574696575632,2,This is a,1.5,These are both,bonsai,NA,warmup2,NA
879,What do you think your friend meant?,NA,It is big relative to other,images/tree-parade-redwood.png,25,NA,NA,NA,No problems at all,2,trees,linda,NA,1,yes,"Your friend runs far ahead of you, and you see him in the distance:",predicative,images/redwood.png,51,trees,requires knowing breeds and classifications and spelling! Yikes.,1,NA,NA,graduated_college,big,English,female,NA,NA,You and your friend see the following:,1,1574696575632,NA,NA,1.5,NA,NA,congr,custom_main_text2,Your friend says: <br/><b>That redwood is big.</b>
879,What do you think your friend meant?,NA,It is big relative to other,images/dog-parade-great-dane.png,25,NA,NA,NA,No problems at all,2,dogs2,linda,NA,1,yes,"Your friend runs far ahead of you, and you see him in the distance:",predicative,images/great-dane.png,51,dogs,requires knowing breeds and classifications and spelling! Yikes.,1,NA,NA,graduated_college,big,English,female,NA,NA,You and your friend see the following:,2,1574696575632,NA,NA,1.5,NA,NA,congr,custom_main_text2,Your friend says: <br/><b>That great dane is big.</b>
879,What do you think your friend meant?,NA,It is small relative to other,images/dog-parade-chihuahua.png,25,NA,NA,NA,No problems at all,2,dogs1,linda,NA,1,yes,"Your friend runs far ahead of you, and you see him in the distance:",predicative,images/chihuahua.png,51,dogs,requires knowing breeds and classifications and spelling! Yikes.,1,NA,NA,graduated_college,small,English,female,NA,NA,You and your friend see the following:,3,1574696575632,NA,NA,1.5,NA,NA,congr,custom_main_text2,Your friend says: <br/><b>That chihuahua is small.</b>
874,<i>What do you think Speaker A meant? </i>,NA,The Empire State Building is tall relative to other,NA,25,NA,NA,NA,No,1,NA,margaret,NA,NA,yes,NA,NA,NA,64,buildings,NA,NA,NA,NA,graduated_college,NA,English,female,NA,NA,In the main trials you will be asked to rephrase something a person said. The utterance will contain a word that is <i>relative</i> and your task is to figure out what it is relative to. <br /> <br /> For example: <br /><br />,1,1574696005109,1,NA,1,NA,NA,NA,comp_class_warmup,NA
874,NA,tall tree.,NA,NA,25,warmup/bonsai.jpg,redwood or sequoia (choose one),This is a,No,1,trees,margaret,bonsai,NA,yes,Please label the pictures below.,NA,NA,64,NA,NA,NA,warmup/sequoia.png,trees.,graduated_college,NA,English,female,NA,trees,NA,1,1574696005109,1,This is a,1,These are both,short tree.,NA,warmup1,NA
874,NA,redwood,NA,NA,25,warmup/bonsai.jpg,redwood or sequoia (choose one),This is a,No,1,trees,margaret,bonsai,NA,yes,Please label the pictures below.,NA,NA,64,NA,NA,NA,warmup/sequoia.png,trees,graduated_college,NA,English,female,NA,trees,NA,1,1574696005109,2,This is a,1,These are both,bonsai,NA,warmup1,NA
874,NA,chihuahua,NA,NA,25,warmup/doberman.png,chihuahua,This is a,No,1,dogs,margaret,doberman,NA,yes,Please label the pictures below.,NA,NA,64,NA,NA,NA,warmup/chihuahua.jpg,dogs,graduated_college,NA,English,female,NA,dogs,NA,2,1574696005109,1,This is a,1,These are both,doberman,NA,warmup1,NA
874,NA,hummingbird,NA,NA,25,warmup/eagle.jpg,hummingbird,This is a,No,1,birds,margaret,eagle,NA,yes,Please label the pictures below.,NA,NA,64,NA,NA,NA,warmup/colibri.jpg,birds,graduated_college,NA,English,female,NA,birds,NA,3,1574696005109,1,This is an,1,These are both,eagle,NA,warmup1,NA
874,What do you think your friend meant?,NA,It is small relative to other,images/tree-parade-bonsai.png,25,NA,NA,NA,No,1,trees,margaret,NA,1,yes,"Your friend runs far ahead of you, and you see him in the distance:",predicative,images/bonsai.png,64,trees,NA,1,NA,NA,graduated_college,small,English,female,NA,NA,You and your friend see the following:,1,1574696005109,NA,NA,1,NA,NA,congr,custom_main_text1,Your friend says: <br/><b>That bonsai is small.</b>
874,What do you think your friend meant?,NA,It is small relative to other,images/dog-parade-basic.png,25,NA,NA,NA,No,1,dogs1,margaret,NA,0,yes,"Your friend runs far ahead of you, and you see him in the distance:",predicative,images/chihuahua.png,64,dogs,NA,1,NA,NA,graduated_college,small,English,female,NA,NA,You and your friend see the following:,2,1574696005109,NA,NA,1,NA,NA,basic,custom_main_text1,Your friend says: <br/><b>That chihuahua is small.</b>
874,What do you think your friend meant?,NA,It is big relative to other,images/bird-parade-eagle.png,25,NA,NA,NA,No,1,birds,margaret,NA,1,yes,"Your friend runs far ahead of you, and you see him in the distance:",predicative,images/eagle.png,64,birds,NA,1,NA,NA,graduated_college,big,English,female,NA,NA,You and your friend see the following:,3,1574696005109,NA,NA,1,NA,NA,congr,custom_main_text1,Your friend says: <br/><b>That eagle is big.</b>
874,NA,swordfish,NA,NA,25,warmup/goldfish.png,swordfish,This is a,No,1,fish,margaret,goldfish,NA,yes,Please label the pictures below.,NA,NA,64,NA,NA,NA,warmup/swordfish.jpg,fish,graduated_college,NA,English,female,NA,fish,NA,1,1574696005109,1,This is a,1,These are both,guppy,NA,warmup2,NA
874,NA,swordfish,NA,NA,25,warmup/goldfish.png,swordfish,This is a,No,1,fish,margaret,goldfish,NA,yes,Please label the pictures below.,NA,NA,64,NA,NA,NA,warmup/swordfish.jpg,fish,graduated_college,NA,English,female,NA,fish,NA,1,1574696005109,2,This is a,1,These are both,goldfish,NA,warmup2,NA
874,NA,pug,NA,NA,25,warmup/great-dane.jpg,pug,This is a,No,1,dogs,margaret,great dane,NA,yes,Please label the pictures below.,NA,NA,64,NA,NA,NA,warmup/pug.jpg,dogs,graduated_college,NA,English,female,NA,dogs,NA,2,1574696005109,1,This is a,1,These are both,labradore,NA,warmup2,NA
874,NA,pug,NA,NA,25,warmup/great-dane.jpg,pug,This is a,No,1,dogs,margaret,great dane,NA,yes,Please label the pictures below.,NA,NA,64,NA,NA,NA,warmup/pug.jpg,dogs,graduated_college,NA,English,female,NA,dogs,NA,2,1574696005109,2,This is a,1,These are both,great dane,NA,warmup2,NA
874,NA,daisy,NA,NA,25,warmup/sunflower.png,dandelion,This is a,No,1,flowers,margaret,sunflower,NA,yes,Please label the pictures below.,NA,NA,64,NA,NA,NA,warmup/dandelion.jpg,flowers,graduated_college,NA,English,female,NA,flowers,NA,3,1574696005109,1,This is a,1,These are both,sunflower,NA,warmup2,NA
874,NA,dandelion,NA,NA,25,warmup/sunflower.png,dandelion,This is a,No,1,flowers,margaret,sunflower,NA,yes,Please label the pictures below.,NA,NA,64,NA,NA,NA,warmup/dandelion.jpg,flowers,graduated_college,NA,English,female,NA,flowers,NA,3,1574696005109,2,This is a,1,These are both,sunflower,NA,warmup2,NA
874,What do you think your friend meant?,NA,It is big relative to other,images/dog-parade-basic2.png,25,NA,NA,NA,No,1,dogs2,margaret,NA,0,yes,"Your friend runs far ahead of you, and you see him in the distance:",predicative,images/great-dane.png,64,dogs,NA,1,NA,NA,graduated_college,big,English,female,NA,NA,You and your friend see the following:,1,1574696005109,NA,NA,1,NA,NA,basic,custom_main_text2,Your friend says: <br/><b>That great dane is big.</b>
874,What do you think your friend meant?,NA,It is big relative to other,images/flower-parade-sunflower.png,25,NA,NA,NA,No,1,flowers,margaret,NA,1,yes,"Your friend runs far ahead of you, and you see him in the distance:",predicative,images/sunflower.png,64,flowers,NA,1,NA,NA,graduated_college,big,English,female,NA,NA,You and your friend see the following:,2,1574696005109,NA,NA,1,NA,NA,congr,custom_main_text2,Your friend says: <br/><b>That sunflower is big.</b>
874,What do you think your friend meant?,NA,It is small relative to other,images/fish-parade-basic.png,25,NA,NA,NA,No,1,fish,margaret,NA,0,yes,"Your friend runs far ahead of you, and you see him in the distance:",predicative,images/goldfish.png,64,fish,NA,1,NA,NA,graduated_college,small,English,female,NA,NA,You and your friend see the following:,3,1574696005109,NA,NA,1,NA,NA,basic,custom_main_text2,Your friend says: <br/><b>That goldfish is small.</b>
873,<i>What do you think Speaker A meant? </i>,NA,The Empire State Building is tall relative to other,NA,25,NA,NA,NA,no,1,NA,barbara,NA,NA,yes,NA,NA,NA,25,buildings,NA,NA,NA,NA,graduated_high_school,NA,English,male,NA,NA,In the main trials you will be asked to rephrase something a person said. The utterance will contain a word that is <i>relative</i> and your task is to figure out what it is relative to. <br /> <br /> For example: <br /><br />,1,1574696275239,1,NA,1,NA,NA,NA,comp_class_warmup,NA
873,NA,small dog,NA,NA,25,warmup/doberman.png,chihuahua,This is a,no,1,dogs,barbara,doberman,NA,yes,Please label the pictures below.,NA,NA,25,NA,NA,NA,warmup/chihuahua.jpg,dogs,graduated_high_school,NA,English,male,NA,dogs,NA,1,1574696275239,1,This is a,1,These are both,big dog,NA,warmup1,NA
873,NA,small dog,NA,NA,25,warmup/doberman.png,chihuahua,This is a,no,1,dogs,barbara,doberman,NA,yes,Please label the pictures below.,NA,NA,25,NA,NA,NA,warmup/chihuahua.jpg,dogs,graduated_high_school,NA,English,male,NA,dogs,NA,1,1574696275239,2,This is a,1,These are both,big dog,NA,warmup1,NA
873,NA,chihuahya,NA,NA,25,warmup/doberman.png,chihuahua,This is a,no,1,dogs,barbara,doberman,NA,yes,Please label the pictures below.,NA,NA,25,NA,NA,NA,warmup/chihuahua.jpg,dogs,graduated_high_school,NA,English,male,NA,dogs,NA,1,1574696275239,3,This is a,1,These are both,doberman,NA,warmup1,NA
873,NA,chihuahya,NA,NA,25,warmup/doberman.png,chihuahua,This is a,no,1,dogs,barbara,doberman,NA,yes,Please label the pictures below.,NA,NA,25,NA,NA,NA,warmup/chihuahua.jpg,dogs,graduated_high_school,NA,English,male,NA,dogs,NA,1,1574696275239,4,This is a,1,These are both,doberman,NA,warmup1,NA
873,NA,chihuahya,NA,NA,25,warmup/doberman.png,chihuahua,This is a,no,1,dogs,barbara,doberman,NA,yes,Please label the pictures below.,NA,NA,25,NA,NA,NA,warmup/chihuahua.jpg,dogs,graduated_high_school,NA,English,male,NA,dogs,NA,1,1574696275239,5,This is a,1,These are both,doberman,NA,warmup1,NA
873,NA,chihuahua,NA,NA,25,warmup/doberman.png,chihuahua,This is a,no,1,dogs,barbara,doberman,NA,yes,Please label the pictures below.,NA,NA,25,NA,NA,NA,warmup/chihuahua.jpg,dogs,graduated_high_school,NA,English,male,NA,dogs,NA,1,1574696275239,6,This is a,1,These are both,doberman,NA,warmup1,NA
873,NA,pug,NA,NA,25,warmup/great-dane.jpg,pug,This is a,no,1,dogs,barbara,great dane,NA,yes,Please label the pictures below.,NA,NA,25,NA,NA,NA,warmup/pug.jpg,dogs,graduated_high_school,NA,English,male,NA,dogs,NA,2,1574696275239,1,This is a,1,These are both,black dog,NA,warmup1,NA
873,NA,pug,NA,NA,25,warmup/great-dane.jpg,pug,This is a,no,1,dogs,barbara,great dane,NA,yes,Please label the pictures below.,NA,NA,25,NA,NA,NA,warmup/pug.jpg,dogs,graduated_high_school,NA,English,male,NA,dogs,NA,2,1574696275239,2,This is a,1,These are both,great dane,NA,warmup1,NA
873,NA,daisy,NA,NA,25,warmup/sunflower.png,dandelion,This is a,no,1,flowers,barbara,sunflower,NA,yes,Please label the pictures below.,NA,NA,25,NA,NA,NA,warmup/dandelion.jpg,flowers,graduated_high_school,NA,English,male,NA,flowers,NA,3,1574696275239,1,This is a,1,These are both,sunflower,NA,warmup1,NA
873,NA,dandelion,NA,NA,25,warmup/sunflower.png,dandelion,This is a,no,1,flowers,barbara,sunflower,NA,yes,Please label the pictures below.,NA,NA,25,NA,NA,NA,warmup/dandelion.jpg,flowers,graduated_high_school,NA,English,male,NA,flowers,NA,3,1574696275239,2,This is a,1,These are both,sunflower,NA,warmup1,NA
873,What do you think your friend meant?,NA,It is small relative to other,images/flower-parade-dandelion.png,25,NA,NA,NA,no,1,flowers,barbara,NA,1,yes,"Your friend runs far ahead of you, and you see him in the distance:",predicative,images/dandelion.png,25,dandelions,NA,1,NA,NA,graduated_high_school,small,English,male,NA,NA,You and your friend see the following:,1,1574696275239,NA,NA,1,NA,NA,congr,custom_main_text1,Your friend says: <br/><b>That dandelion is small.</b>
873,What do you think your friend meant?,NA,It is big relative to other,images/dog-parade-basic2.png,25,NA,NA,NA,no,1,dogs2,barbara,NA,0,yes,"Your friend runs far ahead of you, and you see him in the distance:",predicative,images/great-dane.png,25,dogs,NA,1,NA,NA,graduated_high_school,big,English,male,NA,NA,You and your friend see the following:,2,1574696275239,NA,NA,1,NA,NA,basic,custom_main_text1,Your friend says: <br/><b>That great dane is big.</b>
873,What do you think your friend meant?,NA,It is small relative to other,images/dog-parade-basic.png,25,NA,NA,NA,no,1,dogs1,barbara,NA,0,yes,"Your friend runs far ahead of you, and you see him in the distance:",predicative,images/chihuahua.png,25,dogs,NA,1,NA,NA,graduated_high_school,small,English,male,NA,NA,You and your friend see the following:,3,1574696275239,NA,NA,1,NA,NA,basic,custom_main_text1,Your friend says: <br/><b>That chihuahua is small.</b>
873,NA,swordfish,NA,NA,25,warmup/goldfish.png,swordfish,This is a,no,1,fish,barbara,goldfish,NA,yes,Please label the pictures below.,NA,NA,25,NA,NA,NA,warmup/swordfish.jpg,fish,graduated_high_school,NA,English,male,NA,fish,NA,1,1574696275239,1,This is a,1,These are both,goldfish,NA,warmup2,NA
873,NA,bird,NA,NA,25,warmup/eagle.jpg,hummingbird,This is a,no,1,birds,barbara,eagle,NA,yes,Please label the pictures below.,NA,NA,25,NA,NA,NA,warmup/colibri.jpg,birds,graduated_high_school,NA,English,male,NA,birds,NA,2,1574696275239,1,This is an,1,These are both,eagles,NA,warmup2,NA
873,NA,hummingbird,NA,NA,25,warmup/eagle.jpg,hummingbird,This is a,no,1,birds,barbara,eagle,NA,yes,Please label the pictures below.,NA,NA,25,NA,NA,NA,warmup/colibri.jpg,birds,graduated_high_school,NA,English,male,NA,birds,NA,2,1574696275239,2,This is an,1,These are both,eagle,NA,warmup2,NA
873,NA,big tree,NA,NA,25,warmup/bonsai.jpg,redwood or sequoia (choose one),This is a,no,1,trees,barbara,bonsai,NA,yes,Please label the pictures below.,NA,NA,25,NA,NA,NA,warmup/sequoia.png,trees,graduated_high_school,NA,English,male,NA,trees,NA,3,1574696275239,1,This is a,1,These are both,small tree,NA,warmup2,NA
873,NA,redwood,NA,NA,25,warmup/bonsai.jpg,redwood or sequoia (choose one),This is a,no,1,trees,barbara,bonsai,NA,yes,Please label the pictures below.,NA,NA,25,NA,NA,NA,warmup/sequoia.png,trees,graduated_high_school,NA,English,male,NA,trees,NA,3,1574696275239,2,This is a,1,These are both,bonsai,NA,warmup2,NA
873,What do you think your friend meant?,NA,It is big relative to other,images/bird-parade-eagle.png,25,NA,NA,NA,no,1,birds,barbara,NA,1,yes,"Your friend runs far ahead of you, and you see him in the distance:",predicative,images/eagle.png,25,eagles,NA,1,NA,NA,graduated_high_school,big,English,male,NA,NA,You and your friend see the following:,1,1574696275239,NA,NA,1,NA,NA,congr,custom_main_text2,Your friend says: <br/><b>That eagle is big.</b>
873,What do you think your friend meant?,NA,It is big relative to other,images/fish-parade-basic.png,25,NA,NA,NA,no,1,fish,barbara,NA,0,yes,"Your friend runs far ahead of you, and you see him in the distance:",predicative,images/swordfish.png,25,fish,NA,1,NA,NA,graduated_high_school,big,English,male,NA,NA,You and your friend see the following:,2,1574696275239,NA,NA,1,NA,NA,basic,custom_main_text2,Your friend says: <br/><b>That swordfish is big.</b>
873,What do you think your friend meant?,NA,It is small relative to other,images/tree-parade-bonsai.png,25,NA,NA,NA,no,1,trees,barbara,NA,1,yes,"Your friend runs far ahead of you, and you see him in the distance:",predicative,images/bonsai.png,25,bonsais,NA,1,NA,NA,graduated_high_school,small,English,male,NA,NA,You and your friend see the following:,3,1574696275239,NA,NA,1,NA,NA,congr,custom_main_text2,Your friend says: <br/><b>That bonsai is small.</b>
872,<i>What do you think Speaker A meant? </i>,NA,The Empire State Building is tall relative to other,NA,25,NA,NA,NA,No problems.,1,NA,linda,NA,NA,NA,NA,NA,NA,37,buildings,No comments. Thanks!,NA,NA,NA,higher_degree,NA,English,male,NA,NA,In the main trials you will be asked to rephrase something a person said. The utterance will contain a word that is <i>relative</i> and your task is to figure out what it is relative to. <br /> <br /> For example: <br /><br />,1,1574696325349,1,NA,1,NA,NA,NA,comp_class_warmup,NA
872,NA,swordfish,NA,NA,25,warmup/goldfish.png,swordfish,This is a,No problems.,1,fish,linda,goldfish,NA,NA,Please label the pictures below.,NA,NA,37,NA,No comments. Thanks!,NA,warmup/swordfish.jpg,fish,higher_degree,NA,English,male,NA,fish,NA,1,1574696325349,1,This is a,1,These are both,goldfish,NA,warmup1,NA
872,NA,hummingbird,NA,NA,25,warmup/eagle.jpg,hummingbird,This is a,No problems.,1,birds,linda,eagle,NA,NA,Please label the pictures below.,NA,NA,37,NA,No comments. Thanks!,NA,warmup/colibri.jpg,birds,higher_degree,NA,English,male,NA,birds,NA,2,1574696325349,1,This is an,1,These are both,eagle,NA,warmup1,NA
872,NA,redwood,NA,NA,25,warmup/bonsai.jpg,redwood or sequoia (choose one),This is a,No problems.,1,trees,linda,bonsai,NA,NA,Please label the pictures below.,NA,NA,37,NA,No comments. Thanks!,NA,warmup/sequoia.png,trees,higher_degree,NA,English,male,NA,trees,NA,3,1574696325349,1,This is a,1,These are both,bonsai,NA,warmup1,NA
872,What do you think your friend meant?,NA,It is small relative to other,images/fish-parade-goldfish.png,25,NA,NA,NA,No problems.,1,fish,linda,NA,1,NA,"Your friend runs far ahead of you, and you see him in the distance:",predicative,images/goldfish.png,37,goldfish,No comments. Thanks!,1,NA,NA,higher_degree,small,English,male,NA,NA,You and your friend see the following:,1,1574696325349,NA,NA,1,NA,NA,congr,custom_main_text1,Your friend says: <br/><b>That goldfish is small.</b>
872,What do you think your friend meant?,NA,It is big relative to other,images/tree-parade-basic.png,25,NA,NA,NA,No problems.,1,trees,linda,NA,0,NA,"Your friend runs far ahead of you, and you see him in the distance:",predicative,images/redwood.png,37,trees,No comments. Thanks!,1,NA,NA,higher_degree,big,English,male,NA,NA,You and your friend see the following:,2,1574696325349,NA,NA,1,NA,NA,basic,custom_main_text1,Your friend says: <br/><b>That redwood is big.</b>
872,What do you think your friend meant?,NA,It is big relative to other,images/bird-parade-eagle.png,25,NA,NA,NA,No problems.,1,birds,linda,NA,1,NA,"Your friend runs far ahead of you, and you see him in the distance:",predicative,images/eagle.png,37,eagles,No comments. Thanks!,1,NA,NA,higher_degree,big,English,male,NA,NA,You and your friend see the following:,3,1574696325349,NA,NA,1,NA,NA,congr,custom_main_text1,Your friend says: <br/><b>That eagle is big.</b>
872,NA,pug,NA,NA,25,warmup/great-dane.jpg,pug,This is a,No problems.,1,dogs,linda,great dane,NA,NA,Please label the pictures below.,NA,NA,37,NA,No comments. Thanks!,NA,warmup/pug.jpg,dogs,higher_degree,NA,English,male,NA,dogs,NA,1,1574696325349,1,This is a,1,These are both,great dane,NA,warmup2,NA
872,NA,dandelion,NA,NA,25,warmup/sunflower.png,dandelion,This is a,No problems.,1,flowers,linda,sunflower,NA,NA,Please label the pictures below.,NA,NA,37,NA,No comments. Thanks!,NA,warmup/dandelion.jpg,flowers,higher_degree,NA,English,male,NA,flowers,NA,2,1574696325349,1,This is a,1,These are both,sunflower,NA,warmup2,NA
872,NA,chihuahua,NA,NA,25,warmup/doberman.png,chihuahua,This is a,No problems.,1,dogs,linda,doberman,NA,NA,Please label the pictures below.,NA,NA,37,NA,No comments. Thanks!,NA,warmup/chihuahua.jpg,dogs,higher_degree,NA,English,male,NA,dogs,NA,3,1574696325349,1,This is a,1,These are both,doberman,NA,warmup2,NA
