submission_id,question,response1,sentence_left,startDate,context_picture,experiment_id,picture2,correct1,question1,problems,enjoyment,item,botresponse,correct2,pic_spec,understand,text,condition,target,age,response,comments,ref_spec,picture1,response3,education,target_size,languages,sex,RT,correct3,context,trial_number,startTime,attempts,question3,fairprice,question2,response2,adj_cond,trial_name,utterance
867,NA,swordfish,NA,Fri Nov 22 2019 14:57:24 GMT-0500 (Eastern Standard Time),NA,23,warmup/goldfish_warmup.png,swordfish,This is a,NA,1,fish,Sarah,goldfish,NA,confused,Please label the pictures below.,NA,NA,35,NA,The instructions were kind of vague and it wasnt super clear what I needed to do but I did my best,NA,warmup/swordfish.jpg,fish,graduated_college,NA,English,male,NA,fish,NA,1,1574452644888,1,This is a,1,These are both,goldfish,NA,warmup1,NA
867,NA,small dog,NA,Fri Nov 22 2019 14:57:24 GMT-0500 (Eastern Standard Time),NA,23,warmup/doberman_warmup.png,chihuahua,This is a,NA,1,dogs,Sarah,doberman,NA,confused,Please label the pictures below.,NA,NA,35,NA,The instructions were kind of vague and it wasnt super clear what I needed to do but I did my best,NA,warmup/chihuahua.jpg,dogs,graduated_college,NA,English,male,NA,dogs,NA,2,1574452644888,1,This is a,1,These are both,big dog,NA,warmup1,NA
867,NA,chihuahua,NA,Fri Nov 22 2019 14:57:24 GMT-0500 (Eastern Standard Time),NA,23,warmup/doberman_warmup.png,chihuahua,This is a,NA,1,dogs,Sarah,doberman,NA,confused,Please label the pictures below.,NA,NA,35,NA,The instructions were kind of vague and it wasnt super clear what I needed to do but I did my best,NA,warmup/chihuahua.jpg,dogs,graduated_college,NA,English,male,NA,dogs,NA,2,1574452644888,2,This is a,1,These are both,doberman,NA,warmup1,NA
867,NA,hummingbird,NA,Fri Nov 22 2019 14:57:24 GMT-0500 (Eastern Standard Time),NA,23,warmup/eagle.jpg,hummingbird,This is a,NA,1,birds,Sarah,eagle,NA,confused,Please label the pictures below.,NA,NA,35,NA,The instructions were kind of vague and it wasnt super clear what I needed to do but I did my best,NA,warmup/colibri.jpg,birds,graduated_college,NA,English,male,NA,birds,NA,3,1574452644888,1,This is an,1,These are both,eagle,NA,warmup1,NA
867,What do you think your friend meant?,NA,It is big relative to other,Fri Nov 22 2019 14:57:24 GMT-0500 (Eastern Standard Time),ref-utility/eagles-5-6.png,23,NA,NA,NA,NA,1,birds,Sarah,NA,1,confused,"Your friend runs far ahead of you, and you see him in the distance:",predicative,warmup/eagle.png,35,birds,The instructions were kind of vague and it wasnt super clear what I needed to do but I did my best,1,NA,NA,graduated_college,big,English,male,NA,NA,You and your friend see the following:,1,1574452644888,NA,NA,1,NA,NA,congr,custom_main_text1,Your friend says: <br/><b>That eagle is big.</b>
867,What do you think your friend meant?,NA,It is big relative to other,Fri Nov 22 2019 14:57:24 GMT-0500 (Eastern Standard Time),ref-utility/doberman-5-6.png,23,NA,NA,NA,NA,1,dogs1,Sarah,NA,1,confused,"Your friend runs far ahead of you, and you see him in the distance:",predicative,warmup/doberman.png,35,dogs,The instructions were kind of vague and it wasnt super clear what I needed to do but I did my best,1,NA,NA,graduated_college,big,English,male,NA,NA,You and your friend see the following:,2,1574452644888,NA,NA,1,NA,NA,congr,custom_main_text1,Your friend says: <br/><b>That doberman is big.</b>
867,What do you think your friend meant?,NA,It is big relative to other,Fri Nov 22 2019 14:57:24 GMT-0500 (Eastern Standard Time),ref-utility/swordfish-5-6.png,23,NA,NA,NA,NA,1,fish,Sarah,NA,1,confused,"Your friend runs far ahead of you, and you see him in the distance:",predicative,warmup/swordfish.png,35,swordfish,The instructions were kind of vague and it wasnt super clear what I needed to do but I did my best,1,NA,NA,graduated_college,big,English,male,NA,NA,You and your friend see the following:,3,1574452644888,NA,NA,1,NA,NA,congr,custom_main_text1,Your friend says: <br/><b>That swordfish is big.</b>
867,NA,mutt,NA,Fri Nov 22 2019 14:57:24 GMT-0500 (Eastern Standard Time),NA,23,warmup/great-dane.jpg,pug,This is a,NA,1,dogs,Sarah,great dane,NA,confused,Please label the pictures below.,NA,NA,35,NA,The instructions were kind of vague and it wasnt super clear what I needed to do but I did my best,NA,warmup/pug.jpg,dog,graduated_college,NA,English,male,NA,dogs,NA,1,1574452644888,1,This is a,1,These are both,lab,NA,warmup2,NA
867,NA,pug,NA,Fri Nov 22 2019 14:57:24 GMT-0500 (Eastern Standard Time),NA,23,warmup/great-dane.jpg,pug,This is a,NA,1,dogs,Sarah,great dane,NA,confused,Please label the pictures below.,NA,NA,35,NA,The instructions were kind of vague and it wasnt super clear what I needed to do but I did my best,NA,warmup/pug.jpg,dogs,graduated_college,NA,English,male,NA,dogs,NA,1,1574452644888,2,This is a,1,These are both,great dane,NA,warmup2,NA
867,NA,daisy,NA,Fri Nov 22 2019 14:57:24 GMT-0500 (Eastern Standard Time),NA,23,warmup/sunflower_warmup.png,dandelion,This is a,NA,1,flowers,Sarah,sunflower,NA,confused,Please label the pictures below.,NA,NA,35,NA,The instructions were kind of vague and it wasnt super clear what I needed to do but I did my best,NA,warmup/dandelion.jpg,flowers,graduated_college,NA,English,male,NA,flowers,NA,2,1574452644888,1,This is a,1,These are both,sunflower,NA,warmup2,NA
867,NA,dandelion,NA,Fri Nov 22 2019 14:57:24 GMT-0500 (Eastern Standard Time),NA,23,warmup/sunflower_warmup.png,dandelion,This is a,NA,1,flowers,Sarah,sunflower,NA,confused,Please label the pictures below.,NA,NA,35,NA,The instructions were kind of vague and it wasnt super clear what I needed to do but I did my best,NA,warmup/dandelion.jpg,flowers,graduated_college,NA,English,male,NA,flowers,NA,2,1574452644888,2,This is a,1,These are both,sunflower,NA,warmup2,NA
867,NA,tree,NA,Fri Nov 22 2019 14:57:24 GMT-0500 (Eastern Standard Time),NA,23,warmup/bonsai.jpg,redwood or sequoia (choose one),This is a,NA,1,trees,Sarah,bonsai,NA,confused,Please label the pictures below.,NA,NA,35,NA,The instructions were kind of vague and it wasnt super clear what I needed to do but I did my best,NA,warmup/sequoia.png,tree,graduated_college,NA,English,male,NA,trees,NA,3,1574452644888,1,This is a,1,These are both,tree,NA,warmup2,NA
867,NA,redwood,NA,Fri Nov 22 2019 14:57:24 GMT-0500 (Eastern Standard Time),NA,23,warmup/bonsai.jpg,redwood or sequoia (choose one),This is a,NA,1,trees,Sarah,bonsai,NA,confused,Please label the pictures below.,NA,NA,35,NA,The instructions were kind of vague and it wasnt super clear what I needed to do but I did my best,NA,warmup/sequoia.png,trees,graduated_college,NA,English,male,NA,trees,NA,3,1574452644888,2,This is a,1,These are both,bonsai,NA,warmup2,NA
867,What do you think your friend meant?,NA,It is small relative to other,Fri Nov 22 2019 14:57:24 GMT-0500 (Eastern Standard Time),ref-utility/bonsais-5-6.png,23,NA,NA,NA,NA,1,trees,Sarah,NA,1,confused,"Your friend runs far ahead of you, and you see him in the distance:",predicative,warmup/bonsai.png,35,trees,The instructions were kind of vague and it wasnt super clear what I needed to do but I did my best,1,NA,NA,graduated_college,small,English,male,NA,NA,You and your friend see the following:,1,1574452644888,NA,NA,1,NA,NA,congr,custom_main_text2,Your friend says: <br/><b>That bonsai is small.</b>
867,What do you think your friend meant?,NA,It is small relative to other,Fri Nov 22 2019 14:57:24 GMT-0500 (Eastern Standard Time),ref-utility/dandelions-5-6.png,23,NA,NA,NA,NA,1,flowers,Sarah,NA,1,confused,"Your friend runs far ahead of you, and you see him in the distance:",predicative,warmup/dandelion.png,35,flowers,The instructions were kind of vague and it wasnt super clear what I needed to do but I did my best,1,NA,NA,graduated_college,small,English,male,NA,NA,You and your friend see the following:,2,1574452644888,NA,NA,1,NA,NA,congr,custom_main_text2,Your friend says: <br/><b>That dandelion is small.</b>
867,What do you think your friend meant?,NA,It is small relative to other,Fri Nov 22 2019 14:57:24 GMT-0500 (Eastern Standard Time),ref-utility/pugs-5-6.png,23,NA,NA,NA,NA,1,dogs2,Sarah,NA,1,confused,"Your friend runs far ahead of you, and you see him in the distance:",predicative,warmup/pug.png,35,dogs,The instructions were kind of vague and it wasnt super clear what I needed to do but I did my best,1,NA,NA,graduated_college,small,English,male,NA,NA,You and your friend see the following:,3,1574452644888,NA,NA,1,NA,NA,congr,custom_main_text2,Your friend says: <br/><b>That pug is small.</b>
865,NA,hummingbird,NA,Fri Nov 22 2019 13:42:55 GMT-0600 (Central Standard Time),NA,23,warmup/eagle.jpg,hummingbird,This is a,No,2,birds,margaret,eagle,NA,yes,Please label the pictures below.,NA,NA,37,NA,None at this time,NA,warmup/colibri.jpg,birds,some_college,NA,English,female,NA,birds,NA,1,1574451775962,1,This is an,1,These are both,eagle,NA,warmup1,NA
865,NA,pug,NA,Fri Nov 22 2019 13:42:55 GMT-0600 (Central Standard Time),NA,23,warmup/great-dane.jpg,pug,This is a,No,2,dogs,margaret,great dane,NA,yes,Please label the pictures below.,NA,NA,37,NA,None at this time,NA,warmup/pug.jpg,dogs,some_college,NA,English,female,NA,dogs,NA,2,1574451775962,1,This is a,1,These are both,great dane,NA,warmup1,NA
865,NA,dandelion,NA,Fri Nov 22 2019 13:42:55 GMT-0600 (Central Standard Time),NA,23,warmup/sunflower_warmup.png,dandelion,This is a,No,2,flowers,margaret,sunflower,NA,yes,Please label the pictures below.,NA,NA,37,NA,None at this time,NA,warmup/dandelion.jpg,flowers,some_college,NA,English,female,NA,flowers,NA,3,1574451775962,1,This is a,1,These are both,sunflower,NA,warmup1,NA
865,What do you think your friend meant?,NA,It is small relative to other,Fri Nov 22 2019 13:42:55 GMT-0600 (Central Standard Time),ref-utility/dandelions-5-6.png,23,NA,NA,NA,No,2,flowers,margaret,NA,1,yes,"Your friend runs far ahead of you, and you see him in the distance:",predicative,warmup/dandelion.png,37,flowers,None at this time,1,NA,NA,some_college,small,English,female,NA,NA,You and your friend see the following:,1,1574451775962,NA,NA,1,NA,NA,congr,custom_main_text1,Your friend says: <br/><b>That dandelion is small.</b>
865,What do you think your friend meant?,NA,It is big relative to other,Fri Nov 22 2019 13:42:55 GMT-0600 (Central Standard Time),ref-utility/eagles-5-6.png,23,NA,NA,NA,No,2,birds,margaret,NA,1,yes,"Your friend runs far ahead of you, and you see him in the distance:",predicative,warmup/eagle.png,37,birds,None at this time,1,NA,NA,some_college,big,English,female,NA,NA,You and your friend see the following:,2,1574451775962,NA,NA,1,NA,NA,congr,custom_main_text1,Your friend says: <br/><b>That eagle is big.</b>
865,What do you think your friend meant?,NA,It is big relative to other,Fri Nov 22 2019 13:42:55 GMT-0600 (Central Standard Time),ref-utility/great-danes-5-6.png,23,NA,NA,NA,No,2,dogs2,margaret,NA,1,yes,"Your friend runs far ahead of you, and you see him in the distance:",predicative,warmup/great-dane.png,37,dogs,None at this time,1,NA,NA,some_college,big,English,female,NA,NA,You and your friend see the following:,3,1574451775962,NA,NA,1,NA,NA,congr,custom_main_text1,Your friend says: <br/><b>That great dane is big.</b>
865,NA,oak,NA,Fri Nov 22 2019 13:42:55 GMT-0600 (Central Standard Time),NA,23,warmup/bonsai.jpg,redwood or sequoia (choose one),This is a,No,2,trees,margaret,bonsai,NA,yes,Please label the pictures below.,NA,NA,37,NA,None at this time,NA,warmup/sequoia.png,trees,some_college,NA,English,female,NA,trees,NA,1,1574451775962,1,This is a,1,These are both,bonzai,NA,warmup2,NA
865,NA,redwood,NA,Fri Nov 22 2019 13:42:55 GMT-0600 (Central Standard Time),NA,23,warmup/bonsai.jpg,redwood or sequoia (choose one),This is a,No,2,trees,margaret,bonsai,NA,yes,Please label the pictures below.,NA,NA,37,NA,None at this time,NA,warmup/sequoia.png,trees,some_college,NA,English,female,NA,trees,NA,1,1574451775962,2,This is a,1,These are both,bonsai,NA,warmup2,NA
865,NA,swordfish,NA,Fri Nov 22 2019 13:42:55 GMT-0600 (Central Standard Time),NA,23,warmup/goldfish_warmup.png,swordfish,This is a,No,2,fish,margaret,goldfish,NA,yes,Please label the pictures below.,NA,NA,37,NA,None at this time,NA,warmup/swordfish.jpg,fish,some_college,NA,English,female,NA,fish,NA,2,1574451775962,1,This is a,1,These are both,goldfish,NA,warmup2,NA
865,NA,chihuahua,NA,Fri Nov 22 2019 13:42:55 GMT-0600 (Central Standard Time),NA,23,warmup/doberman_warmup.png,chihuahua,This is a,No,2,dogs,margaret,doberman,NA,yes,Please label the pictures below.,NA,NA,37,NA,None at this time,NA,warmup/chihuahua.jpg,dogs,some_college,NA,English,female,NA,dogs,NA,3,1574451775962,1,This is a,1,These are both,doberman,NA,warmup2,NA
865,What do you think your friend meant?,NA,It is small relative to other,Fri Nov 22 2019 13:42:55 GMT-0600 (Central Standard Time),ref-utility/bonsais-5-6.png,23,NA,NA,NA,No,2,trees,margaret,NA,1,yes,"Your friend runs far ahead of you, and you see him in the distance:",predicative,warmup/bonsai.png,37,trees,None at this time,1,NA,NA,some_college,small,English,female,NA,NA,You and your friend see the following:,1,1574451775962,NA,NA,1,NA,NA,congr,custom_main_text2,Your friend says: <br/><b>That bonsai is small.</b>
865,What do you think your friend meant?,NA,It is small relative to other,Fri Nov 22 2019 13:42:55 GMT-0600 (Central Standard Time),ref-utility/chihuahuas-5-6.png,23,NA,NA,NA,No,2,dogs1,margaret,NA,1,yes,"Your friend runs far ahead of you, and you see him in the distance:",predicative,warmup/chihuahua.png,37,dogs,None at this time,1,NA,NA,some_college,small,English,female,NA,NA,You and your friend see the following:,2,1574451775962,NA,NA,1,NA,NA,congr,custom_main_text2,Your friend says: <br/><b>That chihuahua is small.</b>
865,What do you think your friend meant?,NA,It is big relative to other,Fri Nov 22 2019 13:42:55 GMT-0600 (Central Standard Time),ref-utility/swordfish-5-6.png,23,NA,NA,NA,No,2,fish,margaret,NA,1,yes,"Your friend runs far ahead of you, and you see him in the distance:",predicative,warmup/swordfish.png,37,fish,None at this time,1,NA,NA,some_college,big,English,female,NA,NA,You and your friend see the following:,3,1574451775962,NA,NA,1,NA,NA,congr,custom_main_text2,Your friend says: <br/><b>That swordfish is big.</b>
864,NA,dog,NA,Fri Nov 22 2019 13:22:16 GMT-0600 (Central Standard Time),NA,23,warmup/doberman_warmup.png,chihuahua,This is a,no,0,dogs,elizabeth,doberman,NA,yes,Please label the pictures below.,NA,NA,37,NA,"labels were confusing, just tell us what you want in the first place without the first typing. saves us time and saves you time as well.",NA,warmup/chihuahua.jpg,dogs,higher_degree,NA,english,male,NA,dogs,NA,1,1574450536845,1,This is a,1.5,These are both,dog,NA,warmup1,NA
864,NA,chihuahua,NA,Fri Nov 22 2019 13:22:16 GMT-0600 (Central Standard Time),NA,23,warmup/doberman_warmup.png,chihuahua,This is a,no,0,dogs,elizabeth,doberman,NA,yes,Please label the pictures below.,NA,NA,37,NA,"labels were confusing, just tell us what you want in the first place without the first typing. saves us time and saves you time as well.",NA,warmup/chihuahua.jpg,dogs,higher_degree,NA,english,male,NA,dogs,NA,1,1574450536845,2,This is a,1.5,These are both,doberman,NA,warmup1,NA
864,NA,tree,NA,Fri Nov 22 2019 13:22:16 GMT-0600 (Central Standard Time),NA,23,warmup/bonsai.jpg,redwood or sequoia (choose one),This is a,no,0,trees,elizabeth,bonsai,NA,yes,Please label the pictures below.,NA,NA,37,NA,"labels were confusing, just tell us what you want in the first place without the first typing. saves us time and saves you time as well.",NA,warmup/sequoia.png,trees,higher_degree,NA,english,male,NA,trees,NA,2,1574450536845,1,This is a,1.5,These are both,tree,NA,warmup1,NA
864,NA,redwood,NA,Fri Nov 22 2019 13:22:16 GMT-0600 (Central Standard Time),NA,23,warmup/bonsai.jpg,redwood or sequoia (choose one),This is a,no,0,trees,elizabeth,bonsai,NA,yes,Please label the pictures below.,NA,NA,37,NA,"labels were confusing, just tell us what you want in the first place without the first typing. saves us time and saves you time as well.",NA,warmup/sequoia.png,trees,higher_degree,NA,english,male,NA,trees,NA,2,1574450536845,2,This is a,1.5,These are both,bonsai,NA,warmup1,NA
864,NA,dandelion,NA,Fri Nov 22 2019 13:22:16 GMT-0600 (Central Standard Time),NA,23,warmup/sunflower_warmup.png,dandelion,This is a,no,0,flowers,elizabeth,sunflower,NA,yes,Please label the pictures below.,NA,NA,37,NA,"labels were confusing, just tell us what you want in the first place without the first typing. saves us time and saves you time as well.",NA,warmup/dandelion.jpg,flowers,higher_degree,NA,english,male,NA,flowers,NA,3,1574450536845,1,This is a,1.5,These are both,sunflower,NA,warmup1,NA
864,What do you think your friend meant?,NA,It is small relative to other,Fri Nov 22 2019 13:22:16 GMT-0600 (Central Standard Time),ref-utility/chihuahuas-5-6.png,23,NA,NA,NA,no,0,dogs1,elizabeth,NA,1,yes,"Your friend runs far ahead of you, and you see him in the distance:",predicative,warmup/chihuahua.png,37,dogs,"labels were confusing, just tell us what you want in the first place without the first typing. saves us time and saves you time as well.",1,NA,NA,higher_degree,small,english,male,NA,NA,You and your friend see the following:,1,1574450536845,NA,NA,1.5,NA,NA,congr,custom_main_text1,Your friend says: <br/><b>That chihuahua is small.</b>
864,What do you think your friend meant?,NA,It is small relative to other,Fri Nov 22 2019 13:22:16 GMT-0600 (Central Standard Time),ref-utility/bonsais-5-6.png,23,NA,NA,NA,no,0,trees,elizabeth,NA,1,yes,"Your friend runs far ahead of you, and you see him in the distance:",predicative,warmup/bonsai.png,37,trees,"labels were confusing, just tell us what you want in the first place without the first typing. saves us time and saves you time as well.",1,NA,NA,higher_degree,small,english,male,NA,NA,You and your friend see the following:,2,1574450536845,NA,NA,1.5,NA,NA,congr,custom_main_text1,Your friend says: <br/><b>That bonsai is small.</b>
864,What do you think your friend meant?,NA,It is big relative to other,Fri Nov 22 2019 13:22:16 GMT-0600 (Central Standard Time),ref-utility/sunflowers-5-6.png,23,NA,NA,NA,no,0,flowers,elizabeth,NA,1,yes,"Your friend runs far ahead of you, and you see him in the distance:",predicative,warmup/sunflower.png,37,sunflowers,"labels were confusing, just tell us what you want in the first place without the first typing. saves us time and saves you time as well.",1,NA,NA,higher_degree,big,english,male,NA,NA,You and your friend see the following:,3,1574450536845,NA,NA,1.5,NA,NA,congr,custom_main_text1,Your friend says: <br/><b>That sunflower is big.</b>
864,NA,pug,NA,Fri Nov 22 2019 13:22:16 GMT-0600 (Central Standard Time),NA,23,warmup/great-dane.jpg,pug,This is a,no,0,dogs,elizabeth,great dane,NA,yes,Please label the pictures below.,NA,NA,37,NA,"labels were confusing, just tell us what you want in the first place without the first typing. saves us time and saves you time as well.",NA,warmup/pug.jpg,dogs,higher_degree,NA,english,male,NA,dogs,NA,1,1574450536845,1,This is a,1.5,These are both,dog,NA,warmup2,NA
864,NA,pug,NA,Fri Nov 22 2019 13:22:16 GMT-0600 (Central Standard Time),NA,23,warmup/great-dane.jpg,pug,This is a,no,0,dogs,elizabeth,great dane,NA,yes,Please label the pictures below.,NA,NA,37,NA,"labels were confusing, just tell us what you want in the first place without the first typing. saves us time and saves you time as well.",NA,warmup/pug.jpg,dogs,higher_degree,NA,english,male,NA,dogs,NA,1,1574450536845,2,This is a,1.5,These are both,great dane,NA,warmup2,NA
864,NA,hummingbird,NA,Fri Nov 22 2019 13:22:16 GMT-0600 (Central Standard Time),NA,23,warmup/eagle.jpg,hummingbird,This is a,no,0,birds,elizabeth,eagle,NA,yes,Please label the pictures below.,NA,NA,37,NA,"labels were confusing, just tell us what you want in the first place without the first typing. saves us time and saves you time as well.",NA,warmup/colibri.jpg,birds,higher_degree,NA,english,male,NA,birds,NA,2,1574450536845,1,This is an,1.5,These are both,eagle,NA,warmup2,NA
864,NA,marlin,NA,Fri Nov 22 2019 13:22:16 GMT-0600 (Central Standard Time),NA,23,warmup/goldfish_warmup.png,swordfish,This is a,no,0,fish,elizabeth,goldfish,NA,yes,Please label the pictures below.,NA,NA,37,NA,"labels were confusing, just tell us what you want in the first place without the first typing. saves us time and saves you time as well.",NA,warmup/swordfish.jpg,fish,higher_degree,NA,english,male,NA,fish,NA,3,1574450536845,1,This is a,1.5,These are both,goldfish,NA,warmup2,NA
864,NA,swordfish,NA,Fri Nov 22 2019 13:22:16 GMT-0600 (Central Standard Time),NA,23,warmup/goldfish_warmup.png,swordfish,This is a,no,0,fish,elizabeth,goldfish,NA,yes,Please label the pictures below.,NA,NA,37,NA,"labels were confusing, just tell us what you want in the first place without the first typing. saves us time and saves you time as well.",NA,warmup/swordfish.jpg,fish,higher_degree,NA,english,male,NA,fish,NA,3,1574450536845,2,This is a,1.5,These are both,goldfish,NA,warmup2,NA
864,What do you think your friend meant?,NA,It is big relative to other,Fri Nov 22 2019 13:22:16 GMT-0600 (Central Standard Time),ref-utility/great-danes-5-6.png,23,NA,NA,NA,no,0,dogs2,elizabeth,NA,1,yes,"Your friend runs far ahead of you, and you see him in the distance:",predicative,warmup/great-dane.png,37,dogs,"labels were confusing, just tell us what you want in the first place without the first typing. saves us time and saves you time as well.",1,NA,NA,higher_degree,big,english,male,NA,NA,You and your friend see the following:,1,1574450536845,NA,NA,1.5,NA,NA,congr,custom_main_text2,Your friend says: <br/><b>That great dane is big.</b>
864,What do you think your friend meant?,NA,It is big relative to other,Fri Nov 22 2019 13:22:16 GMT-0600 (Central Standard Time),ref-utility/swordfish-5-6.png,23,NA,NA,NA,no,0,fish,elizabeth,NA,1,yes,"Your friend runs far ahead of you, and you see him in the distance:",predicative,warmup/swordfish.png,37,swordfish,"labels were confusing, just tell us what you want in the first place without the first typing. saves us time and saves you time as well.",1,NA,NA,higher_degree,big,english,male,NA,NA,You and your friend see the following:,2,1574450536845,NA,NA,1.5,NA,NA,congr,custom_main_text2,Your friend says: <br/><b>That swordfish is big.</b>
864,What do you think your friend meant?,NA,It is small relative to other,Fri Nov 22 2019 13:22:16 GMT-0600 (Central Standard Time),ref-utility/hummingbirds-5-6.png,23,NA,NA,NA,no,0,birds,elizabeth,NA,1,yes,"Your friend runs far ahead of you, and you see him in the distance:",predicative,warmup/hummingbird.png,37,hummingbirds,"labels were confusing, just tell us what you want in the first place without the first typing. saves us time and saves you time as well.",1,NA,NA,higher_degree,small,english,male,NA,NA,You and your friend see the following:,3,1574450536845,NA,NA,1.5,NA,NA,congr,custom_main_text2,Your friend says: <br/><b>That hummingbird is small.</b>
862,NA,pug,NA,Fri Nov 22 2019 14:19:48 GMT-0500 (Eastern Standard Time),NA,23,warmup/great-dane.jpg,pug,This is a,NA,2,dogs,sarah,great dane,NA,yes,Please label the pictures below.,NA,NA,27,NA,NA,NA,warmup/pug.jpg,dogs,graduated_college,NA,English,male,NA,dogs,NA,1,1574450388147,1,This is a,1,These are both,great dane,NA,warmup1,NA
862,NA,maple,NA,Fri Nov 22 2019 14:19:48 GMT-0500 (Eastern Standard Time),NA,23,warmup/bonsai.jpg,redwood or sequoia (choose one),This is a,NA,2,trees,sarah,bonsai,NA,yes,Please label the pictures below.,NA,NA,27,NA,NA,NA,warmup/sequoia.png,trees,graduated_college,NA,English,male,NA,trees,NA,2,1574450388147,1,This is a,1,These are both,banzai,NA,warmup1,NA
862,NA,redwood,NA,Fri Nov 22 2019 14:19:48 GMT-0500 (Eastern Standard Time),NA,23,warmup/bonsai.jpg,redwood or sequoia (choose one),This is a,NA,2,trees,sarah,bonsai,NA,yes,Please label the pictures below.,NA,NA,27,NA,NA,NA,warmup/sequoia.png,trees,graduated_college,NA,English,male,NA,trees,NA,2,1574450388147,2,This is a,1,These are both,banzai,NA,warmup1,NA
862,NA,redwood,NA,Fri Nov 22 2019 14:19:48 GMT-0500 (Eastern Standard Time),NA,23,warmup/bonsai.jpg,redwood or sequoia (choose one),This is a,NA,2,trees,sarah,bonsai,NA,yes,Please label the pictures below.,NA,NA,27,NA,NA,NA,warmup/sequoia.png,trees,graduated_college,NA,English,male,NA,trees,NA,2,1574450388147,3,This is a,1,These are both,bonsai,NA,warmup1,NA
862,NA,swordfish,NA,Fri Nov 22 2019 14:19:48 GMT-0500 (Eastern Standard Time),NA,23,warmup/goldfish_warmup.png,swordfish,This is a,NA,2,fish,sarah,goldfish,NA,yes,Please label the pictures below.,NA,NA,27,NA,NA,NA,warmup/swordfish.jpg,fish,graduated_college,NA,English,male,NA,fish,NA,3,1574450388147,1,This is a,1,These are both,goldfish,NA,warmup1,NA
862,What do you think your friend meant?,NA,It is small relative to other,Fri Nov 22 2019 14:19:48 GMT-0500 (Eastern Standard Time),ref-utility/bonsais-5-6.png,23,NA,NA,NA,NA,2,trees,sarah,NA,1,yes,"Your friend runs far ahead of you, and you see him in the distance:",predicative,warmup/bonsai.png,27,trees,NA,1,NA,NA,graduated_college,small,English,male,NA,NA,You and your friend see the following:,1,1574450388147,NA,NA,1,NA,NA,congr,custom_main_text1,Your friend says: <br/><b>That bonsai is small.</b>
862,What do you think your friend meant?,NA,It is big relative to other,Fri Nov 22 2019 14:19:48 GMT-0500 (Eastern Standard Time),ref-utility/great-danes-5-6.png,23,NA,NA,NA,NA,2,dogs2,sarah,NA,1,yes,"Your friend runs far ahead of you, and you see him in the distance:",predicative,warmup/great-dane.png,27,dogs,NA,1,NA,NA,graduated_college,big,English,male,NA,NA,You and your friend see the following:,2,1574450388147,NA,NA,1,NA,NA,congr,custom_main_text1,Your friend says: <br/><b>That great dane is big.</b>
862,What do you think your friend meant?,NA,It is small relative to other,Fri Nov 22 2019 14:19:48 GMT-0500 (Eastern Standard Time),ref-utility/goldfish-5-6.png,23,NA,NA,NA,NA,2,fish,sarah,NA,1,yes,"Your friend runs far ahead of you, and you see him in the distance:",predicative,warmup/goldfish.png,27,fish,NA,1,NA,NA,graduated_college,small,English,male,NA,NA,You and your friend see the following:,3,1574450388147,NA,NA,1,NA,NA,congr,custom_main_text1,Your friend says: <br/><b>That goldfish is small.</b>
862,NA,dandelions,NA,Fri Nov 22 2019 14:19:48 GMT-0500 (Eastern Standard Time),NA,23,warmup/sunflower_warmup.png,dandelion,This is a,NA,2,flowers,sarah,sunflower,NA,yes,Please label the pictures below.,NA,NA,27,NA,NA,NA,warmup/dandelion.jpg,flowers,graduated_college,NA,English,male,NA,flowers,NA,1,1574450388147,1,This is a,1,These are both,sunflower,NA,warmup2,NA
862,NA,dandelion,NA,Fri Nov 22 2019 14:19:48 GMT-0500 (Eastern Standard Time),NA,23,warmup/sunflower_warmup.png,dandelion,This is a,NA,2,flowers,sarah,sunflower,NA,yes,Please label the pictures below.,NA,NA,27,NA,NA,NA,warmup/dandelion.jpg,flowers,graduated_college,NA,English,male,NA,flowers,NA,1,1574450388147,2,This is a,1,These are both,sunflower,NA,warmup2,NA
862,NA,chiuaua,NA,Fri Nov 22 2019 14:19:48 GMT-0500 (Eastern Standard Time),NA,23,warmup/doberman_warmup.png,chihuahua,This is a,NA,2,dogs,sarah,doberman,NA,yes,Please label the pictures below.,NA,NA,27,NA,NA,NA,warmup/chihuahua.jpg,dog,graduated_college,NA,English,male,NA,dogs,NA,2,1574450388147,1,This is a,1,These are both,doberman,NA,warmup2,NA
862,NA,chihuahua,NA,Fri Nov 22 2019 14:19:48 GMT-0500 (Eastern Standard Time),NA,23,warmup/doberman_warmup.png,chihuahua,This is a,NA,2,dogs,sarah,doberman,NA,yes,Please label the pictures below.,NA,NA,27,NA,NA,NA,warmup/chihuahua.jpg,dogs,graduated_college,NA,English,male,NA,dogs,NA,2,1574450388147,2,This is a,1,These are both,doberman,NA,warmup2,NA
862,NA,hummingbird,NA,Fri Nov 22 2019 14:19:48 GMT-0500 (Eastern Standard Time),NA,23,warmup/eagle.jpg,hummingbird,This is a,NA,2,birds,sarah,eagle,NA,yes,Please label the pictures below.,NA,NA,27,NA,NA,NA,warmup/colibri.jpg,birds,graduated_college,NA,English,male,NA,birds,NA,3,1574450388147,1,This is an,1,These are both,eagle,NA,warmup2,NA
862,What do you think your friend meant?,NA,It is big relative to other,Fri Nov 22 2019 14:19:48 GMT-0500 (Eastern Standard Time),ref-utility/eagles-5-6.png,23,NA,NA,NA,NA,2,birds,sarah,NA,1,yes,"Your friend runs far ahead of you, and you see him in the distance:",predicative,warmup/eagle.png,27,birds,NA,1,NA,NA,graduated_college,big,English,male,NA,NA,You and your friend see the following:,1,1574450388147,NA,NA,1,NA,NA,congr,custom_main_text2,Your friend says: <br/><b>That eagle is big.</b>
862,What do you think your friend meant?,NA,It is big relative to other,Fri Nov 22 2019 14:19:48 GMT-0500 (Eastern Standard Time),ref-utility/sunflowers-5-6.png,23,NA,NA,NA,NA,2,flowers,sarah,NA,1,yes,"Your friend runs far ahead of you, and you see him in the distance:",predicative,warmup/sunflower.png,27,flowers,NA,1,NA,NA,graduated_college,big,English,male,NA,NA,You and your friend see the following:,2,1574450388147,NA,NA,1,NA,NA,congr,custom_main_text2,Your friend says: <br/><b>That sunflower is big.</b>
862,What do you think your friend meant?,NA,It is small relative to other,Fri Nov 22 2019 14:19:48 GMT-0500 (Eastern Standard Time),ref-utility/chihuahuas-5-6.png,23,NA,NA,NA,NA,2,dogs1,sarah,NA,1,yes,"Your friend runs far ahead of you, and you see him in the distance:",predicative,warmup/chihuahua.png,27,dogs,NA,1,NA,NA,graduated_college,small,English,male,NA,NA,You and your friend see the following:,3,1574450388147,NA,NA,1,NA,NA,congr,custom_main_text2,Your friend says: <br/><b>That chihuahua is small.</b>
861,NA,humming bird,NA,Fri Nov 22 2019 13:18:33 GMT-0600 (Central Standard Time),NA,23,warmup/eagle.jpg,hummingbird,This is a,no,2,birds,sarah,eagle,NA,NA,Please label the pictures below.,NA,NA,28,NA,none,NA,warmup/colibri.jpg,birds,some_college,NA,English,male,NA,birds,NA,1,1574450313053,1,This is an,1,These are both,eagle,NA,warmup1,NA
861,NA,hummingbird,NA,Fri Nov 22 2019 13:18:33 GMT-0600 (Central Standard Time),NA,23,warmup/eagle.jpg,hummingbird,This is a,no,2,birds,sarah,eagle,NA,NA,Please label the pictures below.,NA,NA,28,NA,none,NA,warmup/colibri.jpg,birds,some_college,NA,English,male,NA,birds,NA,1,1574450313053,2,This is an,1,These are both,eagle,NA,warmup1,NA
861,NA,chiwawa,NA,Fri Nov 22 2019 13:18:33 GMT-0600 (Central Standard Time),NA,23,warmup/doberman_warmup.png,chihuahua,This is a,no,2,dogs,sarah,doberman,NA,NA,Please label the pictures below.,NA,NA,28,NA,none,NA,warmup/chihuahua.jpg,dogs,some_college,NA,English,male,NA,dogs,NA,2,1574450313053,1,This is a,1,These are both,doberman,NA,warmup1,NA
861,NA,chihuahua,NA,Fri Nov 22 2019 13:18:33 GMT-0600 (Central Standard Time),NA,23,warmup/doberman_warmup.png,chihuahua,This is a,no,2,dogs,sarah,doberman,NA,NA,Please label the pictures below.,NA,NA,28,NA,none,NA,warmup/chihuahua.jpg,dogs,some_college,NA,English,male,NA,dogs,NA,2,1574450313053,2,This is a,1,These are both,doberman,NA,warmup1,NA
861,NA,swordfish,NA,Fri Nov 22 2019 13:18:33 GMT-0600 (Central Standard Time),NA,23,warmup/goldfish_warmup.png,swordfish,This is a,no,2,fish,sarah,goldfish,NA,NA,Please label the pictures below.,NA,NA,28,NA,none,NA,warmup/swordfish.jpg,fish,some_college,NA,English,male,NA,fish,NA,3,1574450313053,1,This is a,1,These are both,goldfish,NA,warmup1,NA
861,What do you think your friend meant?,NA,It is small relative to other,Fri Nov 22 2019 13:18:33 GMT-0600 (Central Standard Time),ref-utility/hummingbirds-5-6.png,23,NA,NA,NA,no,2,birds,sarah,NA,1,NA,"Your friend runs far ahead of you, and you see him in the distance:",predicative,warmup/hummingbird.png,28,hummingbirds,none,1,NA,NA,some_college,small,English,male,NA,NA,You and your friend see the following:,1,1574450313053,NA,NA,1,NA,NA,congr,custom_main_text1,Your friend says: <br/><b>That hummingbird is small.</b>
861,What do you think your friend meant?,NA,It is big relative to other,Fri Nov 22 2019 13:18:33 GMT-0600 (Central Standard Time),ref-utility/swordfish-5-6.png,23,NA,NA,NA,no,2,fish,sarah,NA,1,NA,"Your friend runs far ahead of you, and you see him in the distance:",predicative,warmup/swordfish.png,28,swordfish,none,1,NA,NA,some_college,big,English,male,NA,NA,You and your friend see the following:,2,1574450313053,NA,NA,1,NA,NA,congr,custom_main_text1,Your friend says: <br/><b>That swordfish is big.</b>
861,What do you think your friend meant?,NA,It is small relative to other,Fri Nov 22 2019 13:18:33 GMT-0600 (Central Standard Time),ref-utility/chihuahuas-5-6.png,23,NA,NA,NA,no,2,dogs1,sarah,NA,1,NA,"Your friend runs far ahead of you, and you see him in the distance:",predicative,warmup/chihuahua.png,28,dogs,none,1,NA,NA,some_college,small,English,male,NA,NA,You and your friend see the following:,3,1574450313053,NA,NA,1,NA,NA,congr,custom_main_text1,Your friend says: <br/><b>That chihuahua is small.</b>
861,NA,pug,NA,Fri Nov 22 2019 13:18:33 GMT-0600 (Central Standard Time),NA,23,warmup/great-dane.jpg,pug,This is a,no,2,dogs,sarah,great dane,NA,NA,Please label the pictures below.,NA,NA,28,NA,none,NA,warmup/pug.jpg,dogs,some_college,NA,English,male,NA,dogs,NA,1,1574450313053,1,This is a,1,These are both,labador,NA,warmup2,NA
861,NA,pug,NA,Fri Nov 22 2019 13:18:33 GMT-0600 (Central Standard Time),NA,23,warmup/great-dane.jpg,pug,This is a,no,2,dogs,sarah,great dane,NA,NA,Please label the pictures below.,NA,NA,28,NA,none,NA,warmup/pug.jpg,dogs,some_college,NA,English,male,NA,dogs,NA,1,1574450313053,2,This is a,1,These are both,great dane,NA,warmup2,NA
861,NA,dandilion,NA,Fri Nov 22 2019 13:18:33 GMT-0600 (Central Standard Time),NA,23,warmup/sunflower_warmup.png,dandelion,This is a,no,2,flowers,sarah,sunflower,NA,NA,Please label the pictures below.,NA,NA,28,NA,none,NA,warmup/dandelion.jpg,flowers,some_college,NA,English,male,NA,flowers,NA,2,1574450313053,1,This is a,1,These are both,sunflower,NA,warmup2,NA
861,NA,dandelion,NA,Fri Nov 22 2019 13:18:33 GMT-0600 (Central Standard Time),NA,23,warmup/sunflower_warmup.png,dandelion,This is a,no,2,flowers,sarah,sunflower,NA,NA,Please label the pictures below.,NA,NA,28,NA,none,NA,warmup/dandelion.jpg,flowers,some_college,NA,English,male,NA,flowers,NA,2,1574450313053,2,This is a,1,These are both,sunflower,NA,warmup2,NA
861,NA,oak tree,NA,Fri Nov 22 2019 13:18:33 GMT-0600 (Central Standard Time),NA,23,warmup/bonsai.jpg,redwood or sequoia (choose one),This is a,no,2,trees,sarah,bonsai,NA,NA,Please label the pictures below.,NA,NA,28,NA,none,NA,warmup/sequoia.png,trees,some_college,NA,English,male,NA,trees,NA,3,1574450313053,1,This is a,1,These are both,bonzi tree,NA,warmup2,NA
861,NA,redwood,NA,Fri Nov 22 2019 13:18:33 GMT-0600 (Central Standard Time),NA,23,warmup/bonsai.jpg,redwood or sequoia (choose one),This is a,no,2,trees,sarah,bonsai,NA,NA,Please label the pictures below.,NA,NA,28,NA,none,NA,warmup/sequoia.png,trees,some_college,NA,English,male,NA,trees,NA,3,1574450313053,2,This is a,1,These are both,bonsai,NA,warmup2,NA
861,What do you think your friend meant?,NA,It is big relative to other,Fri Nov 22 2019 13:18:33 GMT-0600 (Central Standard Time),ref-utility/redwoods-5-6.png,23,NA,NA,NA,no,2,trees,sarah,NA,1,NA,"Your friend runs far ahead of you, and you see him in the distance:",predicative,warmup/redwood.png,28,trees,none,1,NA,NA,some_college,big,English,male,NA,NA,You and your friend see the following:,1,1574450313053,NA,NA,1,NA,NA,congr,custom_main_text2,Your friend says: <br/><b>That redwood is big.</b>
861,What do you think your friend meant?,NA,It is big relative to other,Fri Nov 22 2019 13:18:33 GMT-0600 (Central Standard Time),ref-utility/great-danes-5-6.png,23,NA,NA,NA,no,2,dogs2,sarah,NA,1,NA,"Your friend runs far ahead of you, and you see him in the distance:",predicative,warmup/great-dane.png,28,great danes,none,1,NA,NA,some_college,big,English,male,NA,NA,You and your friend see the following:,2,1574450313053,NA,NA,1,NA,NA,congr,custom_main_text2,Your friend says: <br/><b>That great dane is big.</b>
861,What do you think your friend meant?,NA,It is small relative to other,Fri Nov 22 2019 13:18:33 GMT-0600 (Central Standard Time),ref-utility/dandelions-5-6.png,23,NA,NA,NA,no,2,flowers,sarah,NA,1,NA,"Your friend runs far ahead of you, and you see him in the distance:",predicative,warmup/dandelion.png,28,flowers,none,1,NA,NA,some_college,small,English,male,NA,NA,You and your friend see the following:,3,1574450313053,NA,NA,1,NA,NA,congr,custom_main_text2,Your friend says: <br/><b>That dandelion is small.</b>
860,NA,chihuahua,NA,Fri Nov 22 2019 14:12:46 GMT-0500 (Eastern Standard Time),NA,23,warmup/doberman_warmup.png,chihuahua,This is a,No issues,1,dogs,mary,doberman,NA,yes,Please label the pictures below.,NA,NA,35,NA,NA,NA,warmup/chihuahua.jpg,dogs,graduated_high_school,NA,English,male,NA,dogs,NA,1,1574449966969,1,This is a,1,These are both,large dog,NA,warmup1,NA
860,NA,chihuahua,NA,Fri Nov 22 2019 14:12:46 GMT-0500 (Eastern Standard Time),NA,23,warmup/doberman_warmup.png,chihuahua,This is a,No issues,1,dogs,mary,doberman,NA,yes,Please label the pictures below.,NA,NA,35,NA,NA,NA,warmup/chihuahua.jpg,dogs,graduated_high_school,NA,English,male,NA,dogs,NA,1,1574449966969,2,This is a,1,These are both,doberman,NA,warmup1,NA
860,NA,swordfish,NA,Fri Nov 22 2019 14:12:46 GMT-0500 (Eastern Standard Time),NA,23,warmup/goldfish_warmup.png,swordfish,This is a,No issues,1,fish,mary,goldfish,NA,yes,Please label the pictures below.,NA,NA,35,NA,NA,NA,warmup/swordfish.jpg,fish,graduated_high_school,NA,English,male,NA,fish,NA,2,1574449966969,1,This is a,1,These are both,goldfish,NA,warmup1,NA
860,NA,redwood,NA,Fri Nov 22 2019 14:12:46 GMT-0500 (Eastern Standard Time),NA,23,warmup/bonsai.jpg,redwood or sequoia (choose one),This is a,No issues,1,trees,mary,bonsai,NA,yes,Please label the pictures below.,NA,NA,35,NA,NA,NA,warmup/sequoia.png,trees,graduated_high_school,NA,English,male,NA,trees,NA,3,1574449966969,1,This is a,1,These are both,bonsai,NA,warmup1,NA
860,What do you think your friend meant?,NA,It is big relative to other,Fri Nov 22 2019 14:12:46 GMT-0500 (Eastern Standard Time),ref-utility/doberman-5-6.png,23,NA,NA,NA,No issues,1,dogs1,mary,NA,1,yes,"Your friend runs far ahead of you, and you see him in the distance:",predicative,warmup/doberman.png,35,dobermen,NA,1,NA,NA,graduated_high_school,big,English,male,NA,NA,You and your friend see the following:,1,1574449966969,NA,NA,1,NA,NA,congr,custom_main_text1,Your friend says: <br/><b>That doberman is big.</b>
860,What do you think your friend meant?,NA,It is small relative to other,Fri Nov 22 2019 14:12:46 GMT-0500 (Eastern Standard Time),ref-utility/bonsais-5-6.png,23,NA,NA,NA,No issues,1,trees,mary,NA,1,yes,"Your friend runs far ahead of you, and you see him in the distance:",predicative,warmup/bonsai.png,35,bonsai,NA,1,NA,NA,graduated_high_school,small,English,male,NA,NA,You and your friend see the following:,2,1574449966969,NA,NA,1,NA,NA,congr,custom_main_text1,Your friend says: <br/><b>That bonsai is small.</b>
860,What do you think your friend meant?,NA,It is big relative to other,Fri Nov 22 2019 14:12:46 GMT-0500 (Eastern Standard Time),ref-utility/swordfish-5-6.png,23,NA,NA,NA,No issues,1,fish,mary,NA,1,yes,"Your friend runs far ahead of you, and you see him in the distance:",predicative,warmup/swordfish.png,35,swordfish,NA,1,NA,NA,graduated_high_school,big,English,male,NA,NA,You and your friend see the following:,3,1574449966969,NA,NA,1,NA,NA,congr,custom_main_text1,Your friend says: <br/><b>That swordfish is big.</b>
860,NA,hummingbird,NA,Fri Nov 22 2019 14:12:46 GMT-0500 (Eastern Standard Time),NA,23,warmup/eagle.jpg,hummingbird,This is a,No issues,1,birds,mary,eagle,NA,yes,Please label the pictures below.,NA,NA,35,NA,NA,NA,warmup/colibri.jpg,birds,graduated_high_school,NA,English,male,NA,birds,NA,1,1574449966969,1,This is an,1,These are both,eagle,NA,warmup2,NA
860,NA,pug,NA,Fri Nov 22 2019 14:12:46 GMT-0500 (Eastern Standard Time),NA,23,warmup/great-dane.jpg,pug,This is a,No issues,1,dogs,mary,great dane,NA,yes,Please label the pictures below.,NA,NA,35,NA,NA,NA,warmup/pug.jpg,dogs,graduated_high_school,NA,English,male,NA,dogs,NA,2,1574449966969,1,This is a,1,These are both,great dane,NA,warmup2,NA
860,NA,dandelion,NA,Fri Nov 22 2019 14:12:46 GMT-0500 (Eastern Standard Time),NA,23,warmup/sunflower_warmup.png,dandelion,This is a,No issues,1,flowers,mary,sunflower,NA,yes,Please label the pictures below.,NA,NA,35,NA,NA,NA,warmup/dandelion.jpg,plants,graduated_high_school,NA,English,male,NA,flowers,NA,3,1574449966969,1,This is a,1,These are both,sunflower,NA,warmup2,NA
860,NA,dandelion,NA,Fri Nov 22 2019 14:12:46 GMT-0500 (Eastern Standard Time),NA,23,warmup/sunflower_warmup.png,dandelion,This is a,No issues,1,flowers,mary,sunflower,NA,yes,Please label the pictures below.,NA,NA,35,NA,NA,NA,warmup/dandelion.jpg,flowers,graduated_high_school,NA,English,male,NA,flowers,NA,3,1574449966969,2,This is a,1,These are both,sunflower,NA,warmup2,NA
860,What do you think your friend meant?,NA,It is small relative to other,Fri Nov 22 2019 14:12:46 GMT-0500 (Eastern Standard Time),ref-utility/pugs-5-6.png,23,NA,NA,NA,No issues,1,dogs2,mary,NA,1,yes,"Your friend runs far ahead of you, and you see him in the distance:",predicative,warmup/pug.png,35,pugs,NA,1,NA,NA,graduated_high_school,small,English,male,NA,NA,You and your friend see the following:,1,1574449966969,NA,NA,1,NA,NA,congr,custom_main_text2,Your friend says: <br/><b>That pug is small.</b>
860,What do you think your friend meant?,NA,It is big relative to other,Fri Nov 22 2019 14:12:46 GMT-0500 (Eastern Standard Time),ref-utility/eagles-5-6.png,23,NA,NA,NA,No issues,1,birds,mary,NA,1,yes,"Your friend runs far ahead of you, and you see him in the distance:",predicative,warmup/eagle.png,35,eagles,NA,1,NA,NA,graduated_high_school,big,English,male,NA,NA,You and your friend see the following:,2,1574449966969,NA,NA,1,NA,NA,congr,custom_main_text2,Your friend says: <br/><b>That eagle is big.</b>
860,What do you think your friend meant?,NA,It is small relative to other,Fri Nov 22 2019 14:12:46 GMT-0500 (Eastern Standard Time),ref-utility/dandelions-5-6.png,23,NA,NA,NA,No issues,1,flowers,mary,NA,1,yes,"Your friend runs far ahead of you, and you see him in the distance:",predicative,warmup/dandelion.png,35,dandelions,NA,1,NA,NA,graduated_high_school,small,English,male,NA,NA,You and your friend see the following:,3,1574449966969,NA,NA,1,NA,NA,congr,custom_main_text2,Your friend says: <br/><b>That dandelion is small.</b>
859,NA,dog,NA,Fri Nov 22 2019 14:15:37 GMT-0500 (Eastern Standard Time),NA,23,warmup/doberman_warmup.png,chihuahua,This is a,none,2,dogs,margaret,doberman,NA,NA,Please label the pictures below.,NA,NA,55,NA,fun HIT,NA,warmup/chihuahua.jpg,dogs,graduated_college,NA,English,female,NA,dogs,NA,1,1574450137219,1,This is a,1,These are both,dog,NA,warmup1,NA
859,NA,chihuahua,NA,Fri Nov 22 2019 14:15:37 GMT-0500 (Eastern Standard Time),NA,23,warmup/doberman_warmup.png,chihuahua,This is a,none,2,dogs,margaret,doberman,NA,NA,Please label the pictures below.,NA,NA,55,NA,fun HIT,NA,warmup/chihuahua.jpg,dogs,graduated_college,NA,English,female,NA,dogs,NA,1,1574450137219,2,This is a,1,These are both,doberman,NA,warmup1,NA
859,NA,pug,NA,Fri Nov 22 2019 14:15:37 GMT-0500 (Eastern Standard Time),NA,23,warmup/great-dane.jpg,pug,This is a,none,2,dogs,margaret,great dane,NA,NA,Please label the pictures below.,NA,NA,55,NA,fun HIT,NA,warmup/pug.jpg,dogs,graduated_college,NA,English,female,NA,dogs,NA,2,1574450137219,1,This is a,1,These are both,great dane,NA,warmup1,NA
859,NA,swordfish,NA,Fri Nov 22 2019 14:15:37 GMT-0500 (Eastern Standard Time),NA,23,warmup/goldfish_warmup.png,swordfish,This is a,none,2,fish,margaret,goldfish,NA,NA,Please label the pictures below.,NA,NA,55,NA,fun HIT,NA,warmup/swordfish.jpg,fish,graduated_college,NA,English,female,NA,fish,NA,3,1574450137219,1,This is a,1,These are both,goldfish,NA,warmup1,NA
859,What do you think your friend meant?,NA,It is big relative to other,Fri Nov 22 2019 14:15:37 GMT-0500 (Eastern Standard Time),ref-utility/doberman-5-6.png,23,NA,NA,NA,none,2,dogs1,margaret,NA,1,NA,"Your friend runs far ahead of you, and you see him in the distance:",predicative,warmup/doberman.png,55,dogs,fun HIT,1,NA,NA,graduated_college,big,English,female,NA,NA,You and your friend see the following:,1,1574450137219,NA,NA,1,NA,NA,congr,custom_main_text1,Your friend says: <br/><b>That doberman is big.</b>
859,What do you think your friend meant?,NA,It is small relative to other,Fri Nov 22 2019 14:15:37 GMT-0500 (Eastern Standard Time),ref-utility/pugs-5-6.png,23,NA,NA,NA,none,2,dogs2,margaret,NA,1,NA,"Your friend runs far ahead of you, and you see him in the distance:",predicative,warmup/pug.png,55,dogs,fun HIT,1,NA,NA,graduated_college,small,English,female,NA,NA,You and your friend see the following:,2,1574450137219,NA,NA,1,NA,NA,congr,custom_main_text1,Your friend says: <br/><b>That pug is small.</b>
859,What do you think your friend meant?,NA,It is small relative to other,Fri Nov 22 2019 14:15:37 GMT-0500 (Eastern Standard Time),ref-utility/goldfish-5-6.png,23,NA,NA,NA,none,2,fish,margaret,NA,1,NA,"Your friend runs far ahead of you, and you see him in the distance:",predicative,warmup/goldfish.png,55,fish,fun HIT,1,NA,NA,graduated_college,small,English,female,NA,NA,You and your friend see the following:,3,1574450137219,NA,NA,1,NA,NA,congr,custom_main_text1,Your friend says: <br/><b>That goldfish is small.</b>
859,NA,oak,NA,Fri Nov 22 2019 14:15:37 GMT-0500 (Eastern Standard Time),NA,23,warmup/bonsai.jpg,redwood or sequoia (choose one),This is a,none,2,trees,margaret,bonsai,NA,NA,Please label the pictures below.,NA,NA,55,NA,fun HIT,NA,warmup/sequoia.png,trees,graduated_college,NA,English,female,NA,trees,NA,1,1574450137219,1,This is a,1,These are both,little tree,NA,warmup2,NA
859,NA,redwood,NA,Fri Nov 22 2019 14:15:37 GMT-0500 (Eastern Standard Time),NA,23,warmup/bonsai.jpg,redwood or sequoia (choose one),This is a,none,2,trees,margaret,bonsai,NA,NA,Please label the pictures below.,NA,NA,55,NA,fun HIT,NA,warmup/sequoia.png,trees,graduated_college,NA,English,female,NA,trees,NA,1,1574450137219,2,This is a,1,These are both,bonsai,NA,warmup2,NA
859,NA,dandelion,NA,Fri Nov 22 2019 14:15:37 GMT-0500 (Eastern Standard Time),NA,23,warmup/sunflower_warmup.png,dandelion,This is a,none,2,flowers,margaret,sunflower,NA,NA,Please label the pictures below.,NA,NA,55,NA,fun HIT,NA,warmup/dandelion.jpg,flowers,graduated_college,NA,English,female,NA,flowers,NA,2,1574450137219,1,This is a,1,These are both,sunflower,NA,warmup2,NA
859,NA,hummingbird,NA,Fri Nov 22 2019 14:15:37 GMT-0500 (Eastern Standard Time),NA,23,warmup/eagle.jpg,hummingbird,This is a,none,2,birds,margaret,eagle,NA,NA,Please label the pictures below.,NA,NA,55,NA,fun HIT,NA,warmup/colibri.jpg,birds,graduated_college,NA,English,female,NA,birds,NA,3,1574450137219,1,This is an,1,These are both,eagle,NA,warmup2,NA
859,What do you think your friend meant?,NA,It is big relative to other,Fri Nov 22 2019 14:15:37 GMT-0500 (Eastern Standard Time),ref-utility/redwoods-5-6.png,23,NA,NA,NA,none,2,trees,margaret,NA,1,NA,"Your friend runs far ahead of you, and you see him in the distance:",predicative,warmup/redwood.png,55,trees,fun HIT,1,NA,NA,graduated_college,big,English,female,NA,NA,You and your friend see the following:,1,1574450137219,NA,NA,1,NA,NA,congr,custom_main_text2,Your friend says: <br/><b>That redwood is big.</b>
859,What do you think your friend meant?,NA,It is small relative to other,Fri Nov 22 2019 14:15:37 GMT-0500 (Eastern Standard Time),ref-utility/dandelions-5-6.png,23,NA,NA,NA,none,2,flowers,margaret,NA,1,NA,"Your friend runs far ahead of you, and you see him in the distance:",predicative,warmup/dandelion.png,55,flowers,fun HIT,1,NA,NA,graduated_college,small,English,female,NA,NA,You and your friend see the following:,2,1574450137219,NA,NA,1,NA,NA,congr,custom_main_text2,Your friend says: <br/><b>That dandelion is small.</b>
859,What do you think your friend meant?,NA,It is big relative to other,Fri Nov 22 2019 14:15:37 GMT-0500 (Eastern Standard Time),ref-utility/eagles-5-6.png,23,NA,NA,NA,none,2,birds,margaret,NA,1,NA,"Your friend runs far ahead of you, and you see him in the distance:",predicative,warmup/eagle.png,55,birds,fun HIT,1,NA,NA,graduated_college,big,English,female,NA,NA,You and your friend see the following:,3,1574450137219,NA,NA,1,NA,NA,congr,custom_main_text2,Your friend says: <br/><b>That eagle is big.</b>
858,NA,dandilion,NA,Fri Nov 22 2019 12:12:13 GMT-0700 (Mountain Standard Time),NA,23,warmup/sunflower_warmup.png,dandelion,This is a,No,2,flowers,Linda,sunflower,NA,NA,Please label the pictures below.,NA,NA,30,NA,"Sometimes I would misspell things like chihuahua and it said it was wrong, which technically yes the spelling was wrong but I knew what it was asking. Or goldfish I spelled as gold fish and it said it was wrong. Not sure if that matters in this experiment.",NA,warmup/dandelion.jpg,plants,graduated_college,NA,english,female,NA,flowers,NA,1,1574449933056,1,This is a,1,These are both,sunflower,NA,warmup1,NA
858,NA,dandelion,NA,Fri Nov 22 2019 12:12:13 GMT-0700 (Mountain Standard Time),NA,23,warmup/sunflower_warmup.png,dandelion,This is a,No,2,flowers,Linda,sunflower,NA,NA,Please label the pictures below.,NA,NA,30,NA,"Sometimes I would misspell things like chihuahua and it said it was wrong, which technically yes the spelling was wrong but I knew what it was asking. Or goldfish I spelled as gold fish and it said it was wrong. Not sure if that matters in this experiment.",NA,warmup/dandelion.jpg,flowers,graduated_college,NA,english,female,NA,flowers,NA,1,1574449933056,2,This is a,1,These are both,sunflower,NA,warmup1,NA
858,NA,pug,NA,Fri Nov 22 2019 12:12:13 GMT-0700 (Mountain Standard Time),NA,23,warmup/great-dane.jpg,pug,This is a,No,2,dogs,Linda,great dane,NA,NA,Please label the pictures below.,NA,NA,30,NA,"Sometimes I would misspell things like chihuahua and it said it was wrong, which technically yes the spelling was wrong but I knew what it was asking. Or goldfish I spelled as gold fish and it said it was wrong. Not sure if that matters in this experiment.",NA,warmup/pug.jpg,dogs,graduated_college,NA,english,female,NA,dogs,NA,2,1574449933056,1,This is a,1,These are both,doberman,NA,warmup1,NA
858,NA,pug,NA,Fri Nov 22 2019 12:12:13 GMT-0700 (Mountain Standard Time),NA,23,warmup/great-dane.jpg,pug,This is a,No,2,dogs,Linda,great dane,NA,NA,Please label the pictures below.,NA,NA,30,NA,"Sometimes I would misspell things like chihuahua and it said it was wrong, which technically yes the spelling was wrong but I knew what it was asking. Or goldfish I spelled as gold fish and it said it was wrong. Not sure if that matters in this experiment.",NA,warmup/pug.jpg,dogs,graduated_college,NA,english,female,NA,dogs,NA,2,1574449933056,2,This is a,1,These are both,great dane,NA,warmup1,NA
858,NA,tree,NA,Fri Nov 22 2019 12:12:13 GMT-0700 (Mountain Standard Time),NA,23,warmup/bonsai.jpg,redwood or sequoia (choose one),This is a,No,2,trees,Linda,bonsai,NA,NA,Please label the pictures below.,NA,NA,30,NA,"Sometimes I would misspell things like chihuahua and it said it was wrong, which technically yes the spelling was wrong but I knew what it was asking. Or goldfish I spelled as gold fish and it said it was wrong. Not sure if that matters in this experiment.",NA,warmup/sequoia.png,trees,graduated_college,NA,english,female,NA,trees,NA,3,1574449933056,1,This is a,1,These are both,bonsai,NA,warmup1,NA
858,NA,redwood,NA,Fri Nov 22 2019 12:12:13 GMT-0700 (Mountain Standard Time),NA,23,warmup/bonsai.jpg,redwood or sequoia (choose one),This is a,No,2,trees,Linda,bonsai,NA,NA,Please label the pictures below.,NA,NA,30,NA,"Sometimes I would misspell things like chihuahua and it said it was wrong, which technically yes the spelling was wrong but I knew what it was asking. Or goldfish I spelled as gold fish and it said it was wrong. Not sure if that matters in this experiment.",NA,warmup/sequoia.png,trees,graduated_college,NA,english,female,NA,trees,NA,3,1574449933056,2,This is a,1,These are both,bonsai,NA,warmup1,NA
858,What do you think your friend meant?,NA,It is big relative to other,Fri Nov 22 2019 12:12:13 GMT-0700 (Mountain Standard Time),ref-utility/sunflowers-5-6.png,23,NA,NA,NA,No,2,flowers,Linda,NA,1,NA,"Your friend runs far ahead of you, and you see him in the distance:",predicative,warmup/sunflower.png,30,flowers,"Sometimes I would misspell things like chihuahua and it said it was wrong, which technically yes the spelling was wrong but I knew what it was asking. Or goldfish I spelled as gold fish and it said it was wrong. Not sure if that matters in this experiment.",1,NA,NA,graduated_college,big,english,female,NA,NA,You and your friend see the following:,1,1574449933056,NA,NA,1,NA,NA,congr,custom_main_text1,Your friend says: <br/><b>That sunflower is big.</b>
858,What do you think your friend meant?,NA,It is big relative to other,Fri Nov 22 2019 12:12:13 GMT-0700 (Mountain Standard Time),ref-utility/great-danes-5-6.png,23,NA,NA,NA,No,2,dogs2,Linda,NA,1,NA,"Your friend runs far ahead of you, and you see him in the distance:",predicative,warmup/great-dane.png,30,dogs,"Sometimes I would misspell things like chihuahua and it said it was wrong, which technically yes the spelling was wrong but I knew what it was asking. Or goldfish I spelled as gold fish and it said it was wrong. Not sure if that matters in this experiment.",1,NA,NA,graduated_college,big,english,female,NA,NA,You and your friend see the following:,2,1574449933056,NA,NA,1,NA,NA,congr,custom_main_text1,Your friend says: <br/><b>That great dane is big.</b>
858,What do you think your friend meant?,NA,It is small relative to other,Fri Nov 22 2019 12:12:13 GMT-0700 (Mountain Standard Time),ref-utility/bonsais-5-6.png,23,NA,NA,NA,No,2,trees,Linda,NA,1,NA,"Your friend runs far ahead of you, and you see him in the distance:",predicative,warmup/bonsai.png,30,trees,"Sometimes I would misspell things like chihuahua and it said it was wrong, which technically yes the spelling was wrong but I knew what it was asking. Or goldfish I spelled as gold fish and it said it was wrong. Not sure if that matters in this experiment.",1,NA,NA,graduated_college,small,english,female,NA,NA,You and your friend see the following:,3,1574449933056,NA,NA,1,NA,NA,congr,custom_main_text1,Your friend says: <br/><b>That bonsai is small.</b>
858,NA,spearhead,NA,Fri Nov 22 2019 12:12:13 GMT-0700 (Mountain Standard Time),NA,23,warmup/goldfish_warmup.png,swordfish,This is a,No,2,fish,Linda,goldfish,NA,NA,Please label the pictures below.,NA,NA,30,NA,"Sometimes I would misspell things like chihuahua and it said it was wrong, which technically yes the spelling was wrong but I knew what it was asking. Or goldfish I spelled as gold fish and it said it was wrong. Not sure if that matters in this experiment.",NA,warmup/swordfish.jpg,fish,graduated_college,NA,english,female,NA,fish,NA,1,1574449933056,1,This is a,1,These are both,gold fish,NA,warmup2,NA
858,NA,swordfish,NA,Fri Nov 22 2019 12:12:13 GMT-0700 (Mountain Standard Time),NA,23,warmup/goldfish_warmup.png,swordfish,This is a,No,2,fish,Linda,goldfish,NA,NA,Please label the pictures below.,NA,NA,30,NA,"Sometimes I would misspell things like chihuahua and it said it was wrong, which technically yes the spelling was wrong but I knew what it was asking. Or goldfish I spelled as gold fish and it said it was wrong. Not sure if that matters in this experiment.",NA,warmup/swordfish.jpg,fish,graduated_college,NA,english,female,NA,fish,NA,1,1574449933056,2,This is a,1,These are both,goldfish,NA,warmup2,NA
858,NA,chiuaha,NA,Fri Nov 22 2019 12:12:13 GMT-0700 (Mountain Standard Time),NA,23,warmup/doberman_warmup.png,chihuahua,This is a,No,2,dogs,Linda,doberman,NA,NA,Please label the pictures below.,NA,NA,30,NA,"Sometimes I would misspell things like chihuahua and it said it was wrong, which technically yes the spelling was wrong but I knew what it was asking. Or goldfish I spelled as gold fish and it said it was wrong. Not sure if that matters in this experiment.",NA,warmup/chihuahua.jpg,dogs,graduated_college,NA,english,female,NA,dogs,NA,2,1574449933056,1,This is a,1,These are both,doberman,NA,warmup2,NA
858,NA,chihuahua,NA,Fri Nov 22 2019 12:12:13 GMT-0700 (Mountain Standard Time),NA,23,warmup/doberman_warmup.png,chihuahua,This is a,No,2,dogs,Linda,doberman,NA,NA,Please label the pictures below.,NA,NA,30,NA,"Sometimes I would misspell things like chihuahua and it said it was wrong, which technically yes the spelling was wrong but I knew what it was asking. Or goldfish I spelled as gold fish and it said it was wrong. Not sure if that matters in this experiment.",NA,warmup/chihuahua.jpg,dogs,graduated_college,NA,english,female,NA,dogs,NA,2,1574449933056,2,This is a,1,These are both,doberman,NA,warmup2,NA
858,NA,humming bird,NA,Fri Nov 22 2019 12:12:13 GMT-0700 (Mountain Standard Time),NA,23,warmup/eagle.jpg,hummingbird,This is a,No,2,birds,Linda,eagle,NA,NA,Please label the pictures below.,NA,NA,30,NA,"Sometimes I would misspell things like chihuahua and it said it was wrong, which technically yes the spelling was wrong but I knew what it was asking. Or goldfish I spelled as gold fish and it said it was wrong. Not sure if that matters in this experiment.",NA,warmup/colibri.jpg,birds,graduated_college,NA,english,female,NA,birds,NA,3,1574449933056,1,This is an,1,These are both,eagle,NA,warmup2,NA
858,NA,hummingbird,NA,Fri Nov 22 2019 12:12:13 GMT-0700 (Mountain Standard Time),NA,23,warmup/eagle.jpg,hummingbird,This is a,No,2,birds,Linda,eagle,NA,NA,Please label the pictures below.,NA,NA,30,NA,"Sometimes I would misspell things like chihuahua and it said it was wrong, which technically yes the spelling was wrong but I knew what it was asking. Or goldfish I spelled as gold fish and it said it was wrong. Not sure if that matters in this experiment.",NA,warmup/colibri.jpg,birds,graduated_college,NA,english,female,NA,birds,NA,3,1574449933056,2,This is an,1,These are both,eagle,NA,warmup2,NA
858,What do you think your friend meant?,NA,It is small relative to other,Fri Nov 22 2019 12:12:13 GMT-0700 (Mountain Standard Time),ref-utility/goldfish-5-6.png,23,NA,NA,NA,No,2,fish,Linda,NA,1,NA,"Your friend runs far ahead of you, and you see him in the distance:",predicative,warmup/goldfish.png,30,fish,"Sometimes I would misspell things like chihuahua and it said it was wrong, which technically yes the spelling was wrong but I knew what it was asking. Or goldfish I spelled as gold fish and it said it was wrong. Not sure if that matters in this experiment.",1,NA,NA,graduated_college,small,english,female,NA,NA,You and your friend see the following:,1,1574449933056,NA,NA,1,NA,NA,congr,custom_main_text2,Your friend says: <br/><b>That goldfish is small.</b>
858,What do you think your friend meant?,NA,It is big relative to other,Fri Nov 22 2019 12:12:13 GMT-0700 (Mountain Standard Time),ref-utility/eagles-5-6.png,23,NA,NA,NA,No,2,birds,Linda,NA,1,NA,"Your friend runs far ahead of you, and you see him in the distance:",predicative,warmup/eagle.png,30,birds,"Sometimes I would misspell things like chihuahua and it said it was wrong, which technically yes the spelling was wrong but I knew what it was asking. Or goldfish I spelled as gold fish and it said it was wrong. Not sure if that matters in this experiment.",1,NA,NA,graduated_college,big,english,female,NA,NA,You and your friend see the following:,2,1574449933056,NA,NA,1,NA,NA,congr,custom_main_text2,Your friend says: <br/><b>That eagle is big.</b>
858,What do you think your friend meant?,NA,It is small relative to other,Fri Nov 22 2019 12:12:13 GMT-0700 (Mountain Standard Time),ref-utility/chihuahuas-5-6.png,23,NA,NA,NA,No,2,dogs1,Linda,NA,1,NA,"Your friend runs far ahead of you, and you see him in the distance:",predicative,warmup/chihuahua.png,30,dogs,"Sometimes I would misspell things like chihuahua and it said it was wrong, which technically yes the spelling was wrong but I knew what it was asking. Or goldfish I spelled as gold fish and it said it was wrong. Not sure if that matters in this experiment.",1,NA,NA,graduated_college,small,english,female,NA,NA,You and your friend see the following:,3,1574449933056,NA,NA,1,NA,NA,congr,custom_main_text2,Your friend says: <br/><b>That chihuahua is small.</b>
857,NA,hummingbird,NA,Fri Nov 22 2019 14:15:31 GMT-0500 (Eastern Standard Time),NA,23,warmup/eagle.jpg,hummingbird,This is a,NA,1,birds,margaret,eagle,NA,yes,Please label the pictures below.,NA,NA,28,NA,NA,NA,warmup/colibri.jpg,birds,higher_degree,NA,english,male,NA,birds,NA,1,1574450131532,1,This is an,2,These are both,eagle,NA,warmup1,NA
857,NA,dandelion,NA,Fri Nov 22 2019 14:15:31 GMT-0500 (Eastern Standard Time),NA,23,warmup/sunflower_warmup.png,dandelion,This is a,NA,1,flowers,margaret,sunflower,NA,yes,Please label the pictures below.,NA,NA,28,NA,NA,NA,warmup/dandelion.jpg,flowers,higher_degree,NA,english,male,NA,flowers,NA,2,1574450131532,1,This is a,2,These are both,sunflower,NA,warmup1,NA
857,NA,redwood,NA,Fri Nov 22 2019 14:15:31 GMT-0500 (Eastern Standard Time),NA,23,warmup/bonsai.jpg,redwood or sequoia (choose one),This is a,NA,1,trees,margaret,bonsai,NA,yes,Please label the pictures below.,NA,NA,28,NA,NA,NA,warmup/sequoia.png,trees,higher_degree,NA,english,male,NA,trees,NA,3,1574450131532,1,This is a,2,These are both,bonsai,NA,warmup1,NA
857,What do you think your friend meant?,NA,It is small relative to other,Fri Nov 22 2019 14:15:31 GMT-0500 (Eastern Standard Time),ref-utility/dandelions-5-6.png,23,NA,NA,NA,NA,1,flowers,margaret,NA,1,yes,"Your friend runs far ahead of you, and you see him in the distance:",predicative,warmup/dandelion.png,28,dandelions,NA,1,NA,NA,higher_degree,small,english,male,NA,NA,You and your friend see the following:,1,1574450131532,NA,NA,2,NA,NA,congr,custom_main_text1,Your friend says: <br/><b>That dandelion is small.</b>
857,What do you think your friend meant?,NA,It is big relative to other,Fri Nov 22 2019 14:15:31 GMT-0500 (Eastern Standard Time),ref-utility/eagles-5-6.png,23,NA,NA,NA,NA,1,birds,margaret,NA,1,yes,"Your friend runs far ahead of you, and you see him in the distance:",predicative,warmup/eagle.png,28,eagles,NA,1,NA,NA,higher_degree,big,english,male,NA,NA,You and your friend see the following:,2,1574450131532,NA,NA,2,NA,NA,congr,custom_main_text1,Your friend says: <br/><b>That eagle is big.</b>
857,What do you think your friend meant?,NA,It is big relative to other,Fri Nov 22 2019 14:15:31 GMT-0500 (Eastern Standard Time),ref-utility/redwoods-5-6.png,23,NA,NA,NA,NA,1,trees,margaret,NA,1,yes,"Your friend runs far ahead of you, and you see him in the distance:",predicative,warmup/redwood.png,28,trees in general,NA,1,NA,NA,higher_degree,big,english,male,NA,NA,You and your friend see the following:,3,1574450131532,NA,NA,2,NA,NA,congr,custom_main_text1,Your friend says: <br/><b>That redwood is big.</b>
857,NA,chiuauaua,NA,Fri Nov 22 2019 14:15:31 GMT-0500 (Eastern Standard Time),NA,23,warmup/doberman_warmup.png,chihuahua,This is a,NA,1,dogs,margaret,doberman,NA,yes,Please label the pictures below.,NA,NA,28,NA,NA,NA,warmup/chihuahua.jpg,dogs,higher_degree,NA,english,male,NA,dogs,NA,1,1574450131532,1,This is a,2,These are both,dane,NA,warmup2,NA
857,NA,chiuauaua,NA,Fri Nov 22 2019 14:15:31 GMT-0500 (Eastern Standard Time),NA,23,warmup/doberman_warmup.png,chihuahua,This is a,NA,1,dogs,margaret,doberman,NA,yes,Please label the pictures below.,NA,NA,28,NA,NA,NA,warmup/chihuahua.jpg,dogs,higher_degree,NA,english,male,NA,dogs,NA,1,1574450131532,2,This is a,2,These are both,dane,NA,warmup2,NA
857,NA,chiuauaua,NA,Fri Nov 22 2019 14:15:31 GMT-0500 (Eastern Standard Time),NA,23,warmup/doberman_warmup.png,chihuahua,This is a,NA,1,dogs,margaret,doberman,NA,yes,Please label the pictures below.,NA,NA,28,NA,NA,NA,warmup/chihuahua.jpg,dogs,higher_degree,NA,english,male,NA,dogs,NA,1,1574450131532,3,This is a,2,These are both,dane,NA,warmup2,NA
857,NA,chihuahua,NA,Fri Nov 22 2019 14:15:31 GMT-0500 (Eastern Standard Time),NA,23,warmup/doberman_warmup.png,chihuahua,This is a,NA,1,dogs,margaret,doberman,NA,yes,Please label the pictures below.,NA,NA,28,NA,NA,NA,warmup/chihuahua.jpg,dogs,higher_degree,NA,english,male,NA,dogs,NA,1,1574450131532,4,This is a,2,These are both,dane,NA,warmup2,NA
857,NA,chihuahua,NA,Fri Nov 22 2019 14:15:31 GMT-0500 (Eastern Standard Time),NA,23,warmup/doberman_warmup.png,chihuahua,This is a,NA,1,dogs,margaret,doberman,NA,yes,Please label the pictures below.,NA,NA,28,NA,NA,NA,warmup/chihuahua.jpg,dogs,higher_degree,NA,english,male,NA,dogs,NA,1,1574450131532,5,This is a,2,These are both,dane,NA,warmup2,NA
857,NA,chihuahua,NA,Fri Nov 22 2019 14:15:31 GMT-0500 (Eastern Standard Time),NA,23,warmup/doberman_warmup.png,chihuahua,This is a,NA,1,dogs,margaret,doberman,NA,yes,Please label the pictures below.,NA,NA,28,NA,NA,NA,warmup/chihuahua.jpg,dogs,higher_degree,NA,english,male,NA,dogs,NA,1,1574450131532,6,This is a,2,These are both,dane,NA,warmup2,NA
857,NA,chihuahua,NA,Fri Nov 22 2019 14:15:31 GMT-0500 (Eastern Standard Time),NA,23,warmup/doberman_warmup.png,chihuahua,This is a,NA,1,dogs,margaret,doberman,NA,yes,Please label the pictures below.,NA,NA,28,NA,NA,NA,warmup/chihuahua.jpg,dogs,higher_degree,NA,english,male,NA,dogs,NA,1,1574450131532,7,This is a,2,These are both,dane,NA,warmup2,NA
857,NA,chihuahua,NA,Fri Nov 22 2019 14:15:31 GMT-0500 (Eastern Standard Time),NA,23,warmup/doberman_warmup.png,chihuahua,This is a,NA,1,dogs,margaret,doberman,NA,yes,Please label the pictures below.,NA,NA,28,NA,NA,NA,warmup/chihuahua.jpg,dogs,higher_degree,NA,english,male,NA,dogs,NA,1,1574450131532,8,This is a,2,These are both,doberman,NA,warmup2,NA
857,NA,pug,NA,Fri Nov 22 2019 14:15:31 GMT-0500 (Eastern Standard Time),NA,23,warmup/great-dane.jpg,pug,This is a,NA,1,dogs,margaret,great dane,NA,yes,Please label the pictures below.,NA,NA,28,NA,NA,NA,warmup/pug.jpg,dogs,higher_degree,NA,english,male,NA,dogs,NA,2,1574450131532,1,This is a,2,These are both,weiner,NA,warmup2,NA
857,NA,pug,NA,Fri Nov 22 2019 14:15:31 GMT-0500 (Eastern Standard Time),NA,23,warmup/great-dane.jpg,pug,This is a,NA,1,dogs,margaret,great dane,NA,yes,Please label the pictures below.,NA,NA,28,NA,NA,NA,warmup/pug.jpg,dogs,higher_degree,NA,english,male,NA,dogs,NA,2,1574450131532,2,This is a,2,These are both,great dane,NA,warmup2,NA
857,NA,marlin,NA,Fri Nov 22 2019 14:15:31 GMT-0500 (Eastern Standard Time),NA,23,warmup/goldfish_warmup.png,swordfish,This is a,NA,1,fish,margaret,goldfish,NA,yes,Please label the pictures below.,NA,NA,28,NA,NA,NA,warmup/swordfish.jpg,fish,higher_degree,NA,english,male,NA,fish,NA,3,1574450131532,1,This is a,2,These are both,goldfish,NA,warmup2,NA
857,NA,marlinswordfish,NA,Fri Nov 22 2019 14:15:31 GMT-0500 (Eastern Standard Time),NA,23,warmup/goldfish_warmup.png,swordfish,This is a,NA,1,fish,margaret,goldfish,NA,yes,Please label the pictures below.,NA,NA,28,NA,NA,NA,warmup/swordfish.jpg,fish,higher_degree,NA,english,male,NA,fish,NA,3,1574450131532,2,This is a,2,These are both,goldfish,NA,warmup2,NA
857,NA,swordfish,NA,Fri Nov 22 2019 14:15:31 GMT-0500 (Eastern Standard Time),NA,23,warmup/goldfish_warmup.png,swordfish,This is a,NA,1,fish,margaret,goldfish,NA,yes,Please label the pictures below.,NA,NA,28,NA,NA,NA,warmup/swordfish.jpg,fish,higher_degree,NA,english,male,NA,fish,NA,3,1574450131532,3,This is a,2,These are both,goldfish,NA,warmup2,NA
857,What do you think your friend meant?,NA,It is small relative to other,Fri Nov 22 2019 14:15:31 GMT-0500 (Eastern Standard Time),ref-utility/pugs-5-6.png,23,NA,NA,NA,NA,1,dogs2,margaret,NA,1,yes,"Your friend runs far ahead of you, and you see him in the distance:",predicative,warmup/pug.png,28,dogs,NA,1,NA,NA,higher_degree,small,english,male,NA,NA,You and your friend see the following:,1,1574450131532,NA,NA,2,NA,NA,congr,custom_main_text2,Your friend says: <br/><b>That pug is small.</b>
857,What do you think your friend meant?,NA,It is small relative to other,Fri Nov 22 2019 14:15:31 GMT-0500 (Eastern Standard Time),ref-utility/chihuahuas-5-6.png,23,NA,NA,NA,NA,1,dogs1,margaret,NA,1,yes,"Your friend runs far ahead of you, and you see him in the distance:",predicative,warmup/chihuahua.png,28,dogs,NA,1,NA,NA,higher_degree,small,english,male,NA,NA,You and your friend see the following:,2,1574450131532,NA,NA,2,NA,NA,congr,custom_main_text2,Your friend says: <br/><b>That chihuahua is small.</b>
857,What do you think your friend meant?,NA,It is big relative to other,Fri Nov 22 2019 14:15:31 GMT-0500 (Eastern Standard Time),ref-utility/swordfish-5-6.png,23,NA,NA,NA,NA,1,fish,margaret,NA,1,yes,"Your friend runs far ahead of you, and you see him in the distance:",predicative,warmup/swordfish.png,28,swordfish,NA,1,NA,NA,higher_degree,big,english,male,NA,NA,You and your friend see the following:,3,1574450131532,NA,NA,2,NA,NA,congr,custom_main_text2,Your friend says: <br/><b>That swordfish is big.</b>
852,NA,Tree,NA,Fri Nov 22 2019 11:06:21 GMT-0800 (Pacific Standard Time),NA,23,warmup/bonsai.jpg,redwood or sequoia (choose one),This is a,NA,2,trees,Mary,bonsai,NA,yes,Please label the pictures below.,NA,NA,48,NA,NA,NA,warmup/sequoia.png,veggies,graduated_college,NA,English,male,NA,trees,NA,1,1574449581283,1,This is a,1,These are both,plant,NA,warmup1,NA
852,NA,Tree,NA,Fri Nov 22 2019 11:06:21 GMT-0800 (Pacific Standard Time),NA,23,warmup/bonsai.jpg,redwood or sequoia (choose one),This is a,NA,2,trees,Mary,bonsai,NA,yes,Please label the pictures below.,NA,NA,48,NA,NA,NA,warmup/sequoia.png,veggies,graduated_college,NA,English,male,NA,trees,NA,1,1574449581283,2,This is a,1,These are both,plant,NA,warmup1,NA
852,NA,Tree,NA,Fri Nov 22 2019 11:06:21 GMT-0800 (Pacific Standard Time),NA,23,warmup/bonsai.jpg,redwood or sequoia (choose one),This is a,NA,2,trees,Mary,bonsai,NA,yes,Please label the pictures below.,NA,NA,48,NA,NA,NA,warmup/sequoia.png,veggies,graduated_college,NA,English,male,NA,trees,NA,1,1574449581283,3,This is a,1,These are both,plant,NA,warmup1,NA
852,NA,trees,NA,Fri Nov 22 2019 11:06:21 GMT-0800 (Pacific Standard Time),NA,23,warmup/bonsai.jpg,redwood or sequoia (choose one),This is a,NA,2,trees,Mary,bonsai,NA,yes,Please label the pictures below.,NA,NA,48,NA,NA,NA,warmup/sequoia.png,veggies,graduated_college,NA,English,male,NA,trees,NA,1,1574449581283,4,This is a,1,These are both,plant,NA,warmup1,NA
852,NA,trees,NA,Fri Nov 22 2019 11:06:21 GMT-0800 (Pacific Standard Time),NA,23,warmup/bonsai.jpg,redwood or sequoia (choose one),This is a,NA,2,trees,Mary,bonsai,NA,yes,Please label the pictures below.,NA,NA,48,NA,NA,NA,warmup/sequoia.png,trees,graduated_college,NA,English,male,NA,trees,NA,1,1574449581283,5,This is a,1,These are both,plant,NA,warmup1,NA
852,NA,trees,NA,Fri Nov 22 2019 11:06:21 GMT-0800 (Pacific Standard Time),NA,23,warmup/bonsai.jpg,redwood or sequoia (choose one),This is a,NA,2,trees,Mary,bonsai,NA,yes,Please label the pictures below.,NA,NA,48,NA,NA,NA,warmup/sequoia.png,trees,graduated_college,NA,English,male,NA,trees,NA,1,1574449581283,6,This is a,1,These are both,plant,NA,warmup1,NA
852,NA,redwood,NA,Fri Nov 22 2019 11:06:21 GMT-0800 (Pacific Standard Time),NA,23,warmup/bonsai.jpg,redwood or sequoia (choose one),This is a,NA,2,trees,Mary,bonsai,NA,yes,Please label the pictures below.,NA,NA,48,NA,NA,NA,warmup/sequoia.png,trees,graduated_college,NA,English,male,NA,trees,NA,1,1574449581283,7,This is a,1,These are both,pbonsai,NA,warmup1,NA
852,NA,redwood,NA,Fri Nov 22 2019 11:06:21 GMT-0800 (Pacific Standard Time),NA,23,warmup/bonsai.jpg,redwood or sequoia (choose one),This is a,NA,2,trees,Mary,bonsai,NA,yes,Please label the pictures below.,NA,NA,48,NA,NA,NA,warmup/sequoia.png,trees,graduated_college,NA,English,male,NA,trees,NA,1,1574449581283,8,This is a,1,These are both,bonsai,NA,warmup1,NA
852,NA,swordfish,NA,Fri Nov 22 2019 11:06:21 GMT-0800 (Pacific Standard Time),NA,23,warmup/goldfish_warmup.png,swordfish,This is a,NA,2,fish,Mary,goldfish,NA,yes,Please label the pictures below.,NA,NA,48,NA,NA,NA,warmup/swordfish.jpg,fish,graduated_college,NA,English,male,NA,fish,NA,2,1574449581283,1,This is a,1,These are both,fish,NA,warmup1,NA
852,NA,swordfish,NA,Fri Nov 22 2019 11:06:21 GMT-0800 (Pacific Standard Time),NA,23,warmup/goldfish_warmup.png,swordfish,This is a,NA,2,fish,Mary,goldfish,NA,yes,Please label the pictures below.,NA,NA,48,NA,NA,NA,warmup/swordfish.jpg,fish,graduated_college,NA,English,male,NA,fish,NA,2,1574449581283,2,This is a,1,These are both,goldfish,NA,warmup1,NA
852,NA,bird,NA,Fri Nov 22 2019 11:06:21 GMT-0800 (Pacific Standard Time),NA,23,warmup/eagle.jpg,hummingbird,This is a,NA,2,birds,Mary,eagle,NA,yes,Please label the pictures below.,NA,NA,48,NA,NA,NA,warmup/colibri.jpg,birds,graduated_college,NA,English,male,NA,birds,NA,3,1574449581283,1,This is an,1,These are both,eagle,NA,warmup1,NA
852,NA,hummingbird,NA,Fri Nov 22 2019 11:06:21 GMT-0800 (Pacific Standard Time),NA,23,warmup/eagle.jpg,hummingbird,This is a,NA,2,birds,Mary,eagle,NA,yes,Please label the pictures below.,NA,NA,48,NA,NA,NA,warmup/colibri.jpg,birds,graduated_college,NA,English,male,NA,birds,NA,3,1574449581283,2,This is an,1,These are both,eagle,NA,warmup1,NA
852,What do you think your friend meant?,NA,It is small relative to other,Fri Nov 22 2019 11:06:21 GMT-0800 (Pacific Standard Time),ref-utility/hummingbirds-5-6.png,23,NA,NA,NA,NA,2,birds,Mary,NA,1,yes,"Your friend runs far ahead of you, and you see him in the distance:",predicative,warmup/hummingbird.png,48,perspective,NA,1,NA,NA,graduated_college,small,English,male,NA,NA,You and your friend see the following:,1,1574449581283,NA,NA,1,NA,NA,congr,custom_main_text1,Your friend says: <br/><b>That hummingbird is small.</b>
852,What do you think your friend meant?,NA,It is big relative to other,Fri Nov 22 2019 11:06:21 GMT-0800 (Pacific Standard Time),ref-utility/redwoods-5-6.png,23,NA,NA,NA,NA,2,trees,Mary,NA,1,yes,"Your friend runs far ahead of you, and you see him in the distance:",predicative,warmup/redwood.png,48,trees,NA,1,NA,NA,graduated_college,big,English,male,NA,NA,You and your friend see the following:,2,1574449581283,NA,NA,1,NA,NA,congr,custom_main_text1,Your friend says: <br/><b>That redwood is big.</b>
852,What do you think your friend meant?,NA,It is big relative to other,Fri Nov 22 2019 11:06:21 GMT-0800 (Pacific Standard Time),ref-utility/swordfish-5-6.png,23,NA,NA,NA,NA,2,fish,Mary,NA,1,yes,"Your friend runs far ahead of you, and you see him in the distance:",predicative,warmup/swordfish.png,48,fish,NA,1,NA,NA,graduated_college,big,English,male,NA,NA,You and your friend see the following:,3,1574449581283,NA,NA,1,NA,NA,congr,custom_main_text1,Your friend says: <br/><b>That swordfish is big.</b>
852,NA,puppy,NA,Fri Nov 22 2019 11:06:21 GMT-0800 (Pacific Standard Time),NA,23,warmup/great-dane.jpg,pug,This is a,NA,2,dogs,Mary,great dane,NA,yes,Please label the pictures below.,NA,NA,48,NA,NA,NA,warmup/pug.jpg,dog,graduated_college,NA,English,male,NA,dogs,NA,1,1574449581283,1,This is a,1,These are both,dog,NA,warmup2,NA
852,NA,pub,NA,Fri Nov 22 2019 11:06:21 GMT-0800 (Pacific Standard Time),NA,23,warmup/great-dane.jpg,pug,This is a,NA,2,dogs,Mary,great dane,NA,yes,Please label the pictures below.,NA,NA,48,NA,NA,NA,warmup/pug.jpg,dogs,graduated_college,NA,English,male,NA,dogs,NA,1,1574449581283,2,This is a,1,These are both,great dane,NA,warmup2,NA
852,NA,pug,NA,Fri Nov 22 2019 11:06:21 GMT-0800 (Pacific Standard Time),NA,23,warmup/great-dane.jpg,pug,This is a,NA,2,dogs,Mary,great dane,NA,yes,Please label the pictures below.,NA,NA,48,NA,NA,NA,warmup/pug.jpg,dogs,graduated_college,NA,English,male,NA,dogs,NA,1,1574449581283,3,This is a,1,These are both,great dane,NA,warmup2,NA
852,NA,plants,NA,Fri Nov 22 2019 11:06:21 GMT-0800 (Pacific Standard Time),NA,23,warmup/sunflower_warmup.png,dandelion,This is a,NA,2,flowers,Mary,sunflower,NA,yes,Please label the pictures below.,NA,NA,48,NA,NA,NA,warmup/dandelion.jpg,flower,graduated_college,NA,English,male,NA,flowers,NA,2,1574449581283,1,This is a,1,These are both,sunflower,NA,warmup2,NA
852,NA,dandelion,NA,Fri Nov 22 2019 11:06:21 GMT-0800 (Pacific Standard Time),NA,23,warmup/sunflower_warmup.png,dandelion,This is a,NA,2,flowers,Mary,sunflower,NA,yes,Please label the pictures below.,NA,NA,48,NA,NA,NA,warmup/dandelion.jpg,flowers,graduated_college,NA,English,male,NA,flowers,NA,2,1574449581283,2,This is a,1,These are both,sunflower,NA,warmup2,NA
852,NA,chihuaua,NA,Fri Nov 22 2019 11:06:21 GMT-0800 (Pacific Standard Time),NA,23,warmup/doberman_warmup.png,chihuahua,This is a,NA,2,dogs,Mary,doberman,NA,yes,Please label the pictures below.,NA,NA,48,NA,NA,NA,warmup/chihuahua.jpg,dogs,graduated_college,NA,English,male,NA,dogs,NA,3,1574449581283,1,This is a,1,These are both,german shepard,NA,warmup2,NA
852,NA,chihuahua,NA,Fri Nov 22 2019 11:06:21 GMT-0800 (Pacific Standard Time),NA,23,warmup/doberman_warmup.png,chihuahua,This is a,NA,2,dogs,Mary,doberman,NA,yes,Please label the pictures below.,NA,NA,48,NA,NA,NA,warmup/chihuahua.jpg,dogs,graduated_college,NA,English,male,NA,dogs,NA,3,1574449581283,2,This is a,1,These are both,doberman,NA,warmup2,NA
852,What do you think your friend meant?,NA,It is small relative to other,Fri Nov 22 2019 11:06:21 GMT-0800 (Pacific Standard Time),ref-utility/dandelions-5-6.png,23,NA,NA,NA,NA,2,flowers,Mary,NA,1,yes,"Your friend runs far ahead of you, and you see him in the distance:",predicative,warmup/dandelion.png,48,flowers,NA,1,NA,NA,graduated_college,small,English,male,NA,NA,You and your friend see the following:,1,1574449581283,NA,NA,1,NA,NA,congr,custom_main_text2,Your friend says: <br/><b>That dandelion is small.</b>
852,What do you think your friend meant?,NA,It is big relative to other,Fri Nov 22 2019 11:06:21 GMT-0800 (Pacific Standard Time),ref-utility/great-danes-5-6.png,23,NA,NA,NA,NA,2,dogs2,Mary,NA,1,yes,"Your friend runs far ahead of you, and you see him in the distance:",predicative,warmup/great-dane.png,48,dogs,NA,1,NA,NA,graduated_college,big,English,male,NA,NA,You and your friend see the following:,2,1574449581283,NA,NA,1,NA,NA,congr,custom_main_text2,Your friend says: <br/><b>That great dane is big.</b>
852,What do you think your friend meant?,NA,It is small relative to other,Fri Nov 22 2019 11:06:21 GMT-0800 (Pacific Standard Time),ref-utility/chihuahuas-5-6.png,23,NA,NA,NA,NA,2,dogs1,Mary,NA,1,yes,"Your friend runs far ahead of you, and you see him in the distance:",predicative,warmup/chihuahua.png,48,chihuahua,NA,1,NA,NA,graduated_college,small,English,male,NA,NA,You and your friend see the following:,3,1574449581283,NA,NA,1,NA,NA,congr,custom_main_text2,Your friend says: <br/><b>That chihuahua is small.</b>
851,NA,hummingbird,NA,Fri Nov 22 2019 11:04:10 GMT-0800 (Pacific Standard Time),NA,23,warmup/eagle.jpg,hummingbird,This is a,NA,1,birds,susan,eagle,NA,yes,Please label the pictures below.,NA,NA,28,NA,NA,NA,warmup/colibri.jpg,birds,some_college,NA,English,female,NA,birds,NA,1,1574449450150,1,This is an,1,These are both,eagle,NA,warmup1,NA
851,NA,redwood tree,NA,Fri Nov 22 2019 11:04:10 GMT-0800 (Pacific Standard Time),NA,23,warmup/bonsai.jpg,redwood or sequoia (choose one),This is a,NA,1,trees,susan,bonsai,NA,yes,Please label the pictures below.,NA,NA,28,NA,NA,NA,warmup/sequoia.png,trees,some_college,NA,English,female,NA,trees,NA,2,1574449450150,1,This is a,1,These are both,bonsai,NA,warmup1,NA
851,NA,redwood,NA,Fri Nov 22 2019 11:04:10 GMT-0800 (Pacific Standard Time),NA,23,warmup/bonsai.jpg,redwood or sequoia (choose one),This is a,NA,1,trees,susan,bonsai,NA,yes,Please label the pictures below.,NA,NA,28,NA,NA,NA,warmup/sequoia.png,trees,some_college,NA,English,female,NA,trees,NA,2,1574449450150,2,This is a,1,These are both,bonsai,NA,warmup1,NA
851,NA,pug,NA,Fri Nov 22 2019 11:04:10 GMT-0800 (Pacific Standard Time),NA,23,warmup/great-dane.jpg,pug,This is a,NA,1,dogs,susan,great dane,NA,yes,Please label the pictures below.,NA,NA,28,NA,NA,NA,warmup/pug.jpg,dogs,some_college,NA,English,female,NA,dogs,NA,3,1574449450150,1,This is a,1,These are both,labrador,NA,warmup1,NA
851,NA,pug,NA,Fri Nov 22 2019 11:04:10 GMT-0800 (Pacific Standard Time),NA,23,warmup/great-dane.jpg,pug,This is a,NA,1,dogs,susan,great dane,NA,yes,Please label the pictures below.,NA,NA,28,NA,NA,NA,warmup/pug.jpg,dogs,some_college,NA,English,female,NA,dogs,NA,3,1574449450150,2,This is a,1,These are both,great dane,NA,warmup1,NA
851,What do you think your friend meant?,NA,It is big relative to other,Fri Nov 22 2019 11:04:10 GMT-0800 (Pacific Standard Time),ref-utility/redwoods-5-6.png,23,NA,NA,NA,NA,1,trees,susan,NA,1,yes,"Your friend runs far ahead of you, and you see him in the distance:",predicative,warmup/redwood.png,28,trees,NA,1,NA,NA,some_college,big,English,female,NA,NA,You and your friend see the following:,1,1574449450150,NA,NA,1,NA,NA,congr,custom_main_text1,Your friend says: <br/><b>That redwood is big.</b>
851,What do you think your friend meant?,NA,It is small relative to other,Fri Nov 22 2019 11:04:10 GMT-0800 (Pacific Standard Time),ref-utility/hummingbirds-5-6.png,23,NA,NA,NA,NA,1,birds,susan,NA,1,yes,"Your friend runs far ahead of you, and you see him in the distance:",predicative,warmup/hummingbird.png,28,birds,NA,1,NA,NA,some_college,small,English,female,NA,NA,You and your friend see the following:,2,1574449450150,NA,NA,1,NA,NA,congr,custom_main_text1,Your friend says: <br/><b>That hummingbird is small.</b>
851,What do you think your friend meant?,NA,It is small relative to other,Fri Nov 22 2019 11:04:10 GMT-0800 (Pacific Standard Time),ref-utility/pugs-5-6.png,23,NA,NA,NA,NA,1,dogs2,susan,NA,1,yes,"Your friend runs far ahead of you, and you see him in the distance:",predicative,warmup/pug.png,28,dogs,NA,1,NA,NA,some_college,small,English,female,NA,NA,You and your friend see the following:,3,1574449450150,NA,NA,1,NA,NA,congr,custom_main_text1,Your friend says: <br/><b>That pug is small.</b>
851,NA,chihuahua,NA,Fri Nov 22 2019 11:04:10 GMT-0800 (Pacific Standard Time),NA,23,warmup/doberman_warmup.png,chihuahua,This is a,NA,1,dogs,susan,doberman,NA,yes,Please label the pictures below.,NA,NA,28,NA,NA,NA,warmup/chihuahua.jpg,dogs,some_college,NA,English,female,NA,dogs,NA,1,1574449450150,1,This is a,1,These are both,doberman,NA,warmup2,NA
851,NA,daisies,NA,Fri Nov 22 2019 11:04:10 GMT-0800 (Pacific Standard Time),NA,23,warmup/sunflower_warmup.png,dandelion,This is a,NA,1,flowers,susan,sunflower,NA,yes,Please label the pictures below.,NA,NA,28,NA,NA,NA,warmup/dandelion.jpg,flowers,some_college,NA,English,female,NA,flowers,NA,2,1574449450150,1,This is a,1,These are both,sunflower,NA,warmup2,NA
851,NA,dandelion,NA,Fri Nov 22 2019 11:04:10 GMT-0800 (Pacific Standard Time),NA,23,warmup/sunflower_warmup.png,dandelion,This is a,NA,1,flowers,susan,sunflower,NA,yes,Please label the pictures below.,NA,NA,28,NA,NA,NA,warmup/dandelion.jpg,flowers,some_college,NA,English,female,NA,flowers,NA,2,1574449450150,2,This is a,1,These are both,sunflower,NA,warmup2,NA
851,NA,marlin,NA,Fri Nov 22 2019 11:04:10 GMT-0800 (Pacific Standard Time),NA,23,warmup/goldfish_warmup.png,swordfish,This is a,NA,1,fish,susan,goldfish,NA,yes,Please label the pictures below.,NA,NA,28,NA,NA,NA,warmup/swordfish.jpg,fishes,some_college,NA,English,female,NA,fish,NA,3,1574449450150,1,This is a,1,These are both,goldfish,NA,warmup2,NA
851,NA,swordfish,NA,Fri Nov 22 2019 11:04:10 GMT-0800 (Pacific Standard Time),NA,23,warmup/goldfish_warmup.png,swordfish,This is a,NA,1,fish,susan,goldfish,NA,yes,Please label the pictures below.,NA,NA,28,NA,NA,NA,warmup/swordfish.jpg,fish,some_college,NA,English,female,NA,fish,NA,3,1574449450150,2,This is a,1,These are both,goldfish,NA,warmup2,NA
851,What do you think your friend meant?,NA,It is big relative to other,Fri Nov 22 2019 11:04:10 GMT-0800 (Pacific Standard Time),ref-utility/doberman-5-6.png,23,NA,NA,NA,NA,1,dogs1,susan,NA,1,yes,"Your friend runs far ahead of you, and you see him in the distance:",predicative,warmup/doberman.png,28,dogs,NA,1,NA,NA,some_college,big,English,female,NA,NA,You and your friend see the following:,1,1574449450150,NA,NA,1,NA,NA,congr,custom_main_text2,Your friend says: <br/><b>That doberman is big.</b>
851,What do you think your friend meant?,NA,It is small relative to other,Fri Nov 22 2019 11:04:10 GMT-0800 (Pacific Standard Time),ref-utility/goldfish-5-6.png,23,NA,NA,NA,NA,1,fish,susan,NA,1,yes,"Your friend runs far ahead of you, and you see him in the distance:",predicative,warmup/goldfish.png,28,fish,NA,1,NA,NA,some_college,small,English,female,NA,NA,You and your friend see the following:,2,1574449450150,NA,NA,1,NA,NA,congr,custom_main_text2,Your friend says: <br/><b>That goldfish is small.</b>
851,What do you think your friend meant?,NA,It is big relative to other,Fri Nov 22 2019 11:04:10 GMT-0800 (Pacific Standard Time),ref-utility/sunflowers-5-6.png,23,NA,NA,NA,NA,1,flowers,susan,NA,1,yes,"Your friend runs far ahead of you, and you see him in the distance:",predicative,warmup/sunflower.png,28,flower,NA,1,NA,NA,some_college,big,English,female,NA,NA,You and your friend see the following:,3,1574449450150,NA,NA,1,NA,NA,congr,custom_main_text2,Your friend says: <br/><b>That sunflower is big.</b>
850,NA,pug,NA,Fri Nov 22 2019 13:03:13 GMT-0600 (Central Standard Time),NA,23,warmup/great-dane.jpg,pug,This is a,no none,2,dogs,margaret,great dane,NA,NA,Please label the pictures below.,NA,NA,NA,NA,none. A2GN5L03ZQEOZF,NA,warmup/pug.jpg,dogs,NA,NA,English,NA,NA,dogs,NA,1,1574449393418,1,This is a,1,These are both,great dame,NA,warmup1,NA
850,NA,pug,NA,Fri Nov 22 2019 13:03:13 GMT-0600 (Central Standard Time),NA,23,warmup/great-dane.jpg,pug,This is a,no none,2,dogs,margaret,great dane,NA,NA,Please label the pictures below.,NA,NA,NA,NA,none. A2GN5L03ZQEOZF,NA,warmup/pug.jpg,dogs,NA,NA,English,NA,NA,dogs,NA,1,1574449393418,2,This is a,1,These are both,great dane,NA,warmup1,NA
850,NA,big tree,NA,Fri Nov 22 2019 13:03:13 GMT-0600 (Central Standard Time),NA,23,warmup/bonsai.jpg,redwood or sequoia (choose one),This is a,no none,2,trees,margaret,bonsai,NA,NA,Please label the pictures below.,NA,NA,NA,NA,none. A2GN5L03ZQEOZF,NA,warmup/sequoia.png,trees,NA,NA,English,NA,NA,trees,NA,2,1574449393418,1,This is a,1,These are both,small tree,NA,warmup1,NA
850,NA,redwood,NA,Fri Nov 22 2019 13:03:13 GMT-0600 (Central Standard Time),NA,23,warmup/bonsai.jpg,redwood or sequoia (choose one),This is a,no none,2,trees,margaret,bonsai,NA,NA,Please label the pictures below.,NA,NA,NA,NA,none. A2GN5L03ZQEOZF,NA,warmup/sequoia.png,trees,NA,NA,English,NA,NA,trees,NA,2,1574449393418,2,This is a,1,These are both,bonsai,NA,warmup1,NA
850,NA,chiwahua,NA,Fri Nov 22 2019 13:03:13 GMT-0600 (Central Standard Time),NA,23,warmup/doberman_warmup.png,chihuahua,This is a,no none,2,dogs,margaret,doberman,NA,NA,Please label the pictures below.,NA,NA,NA,NA,none. A2GN5L03ZQEOZF,NA,warmup/chihuahua.jpg,dogs,NA,NA,English,NA,NA,dogs,NA,3,1574449393418,1,This is a,1,These are both,doberman pinsher,NA,warmup1,NA
850,NA,chihuahua,NA,Fri Nov 22 2019 13:03:13 GMT-0600 (Central Standard Time),NA,23,warmup/doberman_warmup.png,chihuahua,This is a,no none,2,dogs,margaret,doberman,NA,NA,Please label the pictures below.,NA,NA,NA,NA,none. A2GN5L03ZQEOZF,NA,warmup/chihuahua.jpg,dogs,NA,NA,English,NA,NA,dogs,NA,3,1574449393418,2,This is a,1,These are both,doberman,NA,warmup1,NA
850,What do you think your friend meant?,NA,It is small relative to other,Fri Nov 22 2019 13:03:13 GMT-0600 (Central Standard Time),ref-utility/chihuahuas-5-6.png,23,NA,NA,NA,no none,2,dogs1,margaret,NA,1,NA,"Your friend runs far ahead of you, and you see him in the distance:",predicative,warmup/chihuahua.png,NA,dogs,none. A2GN5L03ZQEOZF,1,NA,NA,NA,small,English,NA,NA,NA,You and your friend see the following:,1,1574449393418,NA,NA,1,NA,NA,congr,custom_main_text1,Your friend says: <br/><b>That chihuahua is small.</b>
850,What do you think your friend meant?,NA,It is big relative to other,Fri Nov 22 2019 13:03:13 GMT-0600 (Central Standard Time),ref-utility/great-danes-5-6.png,23,NA,NA,NA,no none,2,dogs2,margaret,NA,1,NA,"Your friend runs far ahead of you, and you see him in the distance:",predicative,warmup/great-dane.png,NA,dogs,none. A2GN5L03ZQEOZF,1,NA,NA,NA,big,English,NA,NA,NA,You and your friend see the following:,2,1574449393418,NA,NA,1,NA,NA,congr,custom_main_text1,Your friend says: <br/><b>That great dane is big.</b>
850,What do you think your friend meant?,NA,It is small relative to other,Fri Nov 22 2019 13:03:13 GMT-0600 (Central Standard Time),ref-utility/bonsais-5-6.png,23,NA,NA,NA,no none,2,trees,margaret,NA,1,NA,"Your friend runs far ahead of you, and you see him in the distance:",predicative,warmup/bonsai.png,NA,trees,none. A2GN5L03ZQEOZF,1,NA,NA,NA,small,English,NA,NA,NA,You and your friend see the following:,3,1574449393418,NA,NA,1,NA,NA,congr,custom_main_text1,Your friend says: <br/><b>That bonsai is small.</b>
850,NA,dandelion,NA,Fri Nov 22 2019 13:03:13 GMT-0600 (Central Standard Time),NA,23,warmup/sunflower_warmup.png,dandelion,This is a,no none,2,flowers,margaret,sunflower,NA,NA,Please label the pictures below.,NA,NA,NA,NA,none. A2GN5L03ZQEOZF,NA,warmup/dandelion.jpg,flowers,NA,NA,English,NA,NA,flowers,NA,1,1574449393418,1,This is a,1,These are both,sunflower,NA,warmup2,NA
850,NA,sword fish,NA,Fri Nov 22 2019 13:03:13 GMT-0600 (Central Standard Time),NA,23,warmup/goldfish_warmup.png,swordfish,This is a,no none,2,fish,margaret,goldfish,NA,NA,Please label the pictures below.,NA,NA,NA,NA,none. A2GN5L03ZQEOZF,NA,warmup/swordfish.jpg,fish,NA,NA,English,NA,NA,fish,NA,2,1574449393418,1,This is a,1,These are both,goldfish,NA,warmup2,NA
850,NA,swordfish,NA,Fri Nov 22 2019 13:03:13 GMT-0600 (Central Standard Time),NA,23,warmup/goldfish_warmup.png,swordfish,This is a,no none,2,fish,margaret,goldfish,NA,NA,Please label the pictures below.,NA,NA,NA,NA,none. A2GN5L03ZQEOZF,NA,warmup/swordfish.jpg,fish,NA,NA,English,NA,NA,fish,NA,2,1574449393418,2,This is a,1,These are both,goldfish,NA,warmup2,NA
850,NA,humming,NA,Fri Nov 22 2019 13:03:13 GMT-0600 (Central Standard Time),NA,23,warmup/eagle.jpg,hummingbird,This is a,no none,2,birds,margaret,eagle,NA,NA,Please label the pictures below.,NA,NA,NA,NA,none. A2GN5L03ZQEOZF,NA,warmup/colibri.jpg,birds,NA,NA,English,NA,NA,birds,NA,3,1574449393418,1,This is an,1,These are both,eagle,NA,warmup2,NA
850,NA,hummingbird,NA,Fri Nov 22 2019 13:03:13 GMT-0600 (Central Standard Time),NA,23,warmup/eagle.jpg,hummingbird,This is a,no none,2,birds,margaret,eagle,NA,NA,Please label the pictures below.,NA,NA,NA,NA,none. A2GN5L03ZQEOZF,NA,warmup/colibri.jpg,birds,NA,NA,English,NA,NA,birds,NA,3,1574449393418,2,This is an,1,These are both,eagle,NA,warmup2,NA
850,What do you think your friend meant?,NA,It is big relative to other,Fri Nov 22 2019 13:03:13 GMT-0600 (Central Standard Time),ref-utility/sunflowers-5-6.png,23,NA,NA,NA,no none,2,flowers,margaret,NA,1,NA,"Your friend runs far ahead of you, and you see him in the distance:",predicative,warmup/sunflower.png,NA,flowers,none. A2GN5L03ZQEOZF,1,NA,NA,NA,big,English,NA,NA,NA,You and your friend see the following:,1,1574449393418,NA,NA,1,NA,NA,congr,custom_main_text2,Your friend says: <br/><b>That sunflower is big.</b>
850,What do you think your friend meant?,NA,It is big relative to other,Fri Nov 22 2019 13:03:13 GMT-0600 (Central Standard Time),ref-utility/swordfish-5-6.png,23,NA,NA,NA,no none,2,fish,margaret,NA,1,NA,"Your friend runs far ahead of you, and you see him in the distance:",predicative,warmup/swordfish.png,NA,fish,none. A2GN5L03ZQEOZF,1,NA,NA,NA,big,English,NA,NA,NA,You and your friend see the following:,2,1574449393418,NA,NA,1,NA,NA,congr,custom_main_text2,Your friend says: <br/><b>That swordfish is big.</b>
850,What do you think your friend meant?,NA,It is small relative to other,Fri Nov 22 2019 13:03:13 GMT-0600 (Central Standard Time),ref-utility/hummingbirds-5-6.png,23,NA,NA,NA,no none,2,birds,margaret,NA,1,NA,"Your friend runs far ahead of you, and you see him in the distance:",predicative,warmup/hummingbird.png,NA,birds,none. A2GN5L03ZQEOZF,1,NA,NA,NA,small,English,NA,NA,NA,You and your friend see the following:,3,1574449393418,NA,NA,1,NA,NA,congr,custom_main_text2,Your friend says: <br/><b>That hummingbird is small.</b>
849,NA,pug,NA,Fri Nov 22 2019 14:00:31 GMT-0500 (Eastern Standard Time),NA,23,warmup/great-dane.jpg,pug,This is a,none,2,dogs,linda,great dane,NA,yes,Please label the pictures below.,NA,NA,52,NA,none,NA,warmup/pug.jpg,dogs,graduated_college,NA,english,female,NA,dogs,NA,1,1574449231343,1,This is a,1.25,These are both,retriever,NA,warmup1,NA
849,NA,pug,NA,Fri Nov 22 2019 14:00:31 GMT-0500 (Eastern Standard Time),NA,23,warmup/great-dane.jpg,pug,This is a,none,2,dogs,linda,great dane,NA,yes,Please label the pictures below.,NA,NA,52,NA,none,NA,warmup/pug.jpg,dogs,graduated_college,NA,english,female,NA,dogs,NA,1,1574449231343,2,This is a,1.25,These are both,great dane,NA,warmup1,NA
849,NA,chihuahua,NA,Fri Nov 22 2019 14:00:31 GMT-0500 (Eastern Standard Time),NA,23,warmup/doberman_warmup.png,chihuahua,This is a,none,2,dogs,linda,doberman,NA,yes,Please label the pictures below.,NA,NA,52,NA,none,NA,warmup/chihuahua.jpg,dogs,graduated_college,NA,english,female,NA,dogs,NA,2,1574449231343,1,This is a,1.25,These are both,doberman,NA,warmup1,NA
849,NA,sparrow,NA,Fri Nov 22 2019 14:00:31 GMT-0500 (Eastern Standard Time),NA,23,warmup/eagle.jpg,hummingbird,This is a,none,2,birds,linda,eagle,NA,yes,Please label the pictures below.,NA,NA,52,NA,none,NA,warmup/colibri.jpg,birds,graduated_college,NA,english,female,NA,birds,NA,3,1574449231343,1,This is an,1.25,These are both,eagle,NA,warmup1,NA
849,NA,hummingbird,NA,Fri Nov 22 2019 14:00:31 GMT-0500 (Eastern Standard Time),NA,23,warmup/eagle.jpg,hummingbird,This is a,none,2,birds,linda,eagle,NA,yes,Please label the pictures below.,NA,NA,52,NA,none,NA,warmup/colibri.jpg,birds,graduated_college,NA,english,female,NA,birds,NA,3,1574449231343,2,This is an,1.25,These are both,eagle,NA,warmup1,NA
849,What do you think your friend meant?,NA,It is big relative to other,Fri Nov 22 2019 14:00:31 GMT-0500 (Eastern Standard Time),ref-utility/eagles-5-6.png,23,NA,NA,NA,none,2,birds,linda,NA,1,yes,"Your friend runs far ahead of you, and you see him in the distance:",predicative,warmup/eagle.png,52,birds,none,1,NA,NA,graduated_college,big,english,female,NA,NA,You and your friend see the following:,1,1574449231343,NA,NA,1.25,NA,NA,congr,custom_main_text1,Your friend says: <br/><b>That eagle is big.</b>
849,What do you think your friend meant?,NA,It is small relative to other,Fri Nov 22 2019 14:00:31 GMT-0500 (Eastern Standard Time),ref-utility/chihuahuas-5-6.png,23,NA,NA,NA,none,2,dogs1,linda,NA,1,yes,"Your friend runs far ahead of you, and you see him in the distance:",predicative,warmup/chihuahua.png,52,dogs,none,1,NA,NA,graduated_college,small,english,female,NA,NA,You and your friend see the following:,2,1574449231343,NA,NA,1.25,NA,NA,congr,custom_main_text1,Your friend says: <br/><b>That chihuahua is small.</b>
849,What do you think your friend meant?,NA,It is small relative to other,Fri Nov 22 2019 14:00:31 GMT-0500 (Eastern Standard Time),ref-utility/pugs-5-6.png,23,NA,NA,NA,none,2,dogs2,linda,NA,1,yes,"Your friend runs far ahead of you, and you see him in the distance:",predicative,warmup/pug.png,52,dogs,none,1,NA,NA,graduated_college,small,english,female,NA,NA,You and your friend see the following:,3,1574449231343,NA,NA,1.25,NA,NA,congr,custom_main_text1,Your friend says: <br/><b>That pug is small.</b>
849,NA,maple,NA,Fri Nov 22 2019 14:00:31 GMT-0500 (Eastern Standard Time),NA,23,warmup/bonsai.jpg,redwood or sequoia (choose one),This is a,none,2,trees,linda,bonsai,NA,yes,Please label the pictures below.,NA,NA,52,NA,none,NA,warmup/sequoia.png,trees,graduated_college,NA,english,female,NA,trees,NA,1,1574449231343,1,This is a,1.25,These are both,bonsai,NA,warmup2,NA
849,NA,redwood,NA,Fri Nov 22 2019 14:00:31 GMT-0500 (Eastern Standard Time),NA,23,warmup/bonsai.jpg,redwood or sequoia (choose one),This is a,none,2,trees,linda,bonsai,NA,yes,Please label the pictures below.,NA,NA,52,NA,none,NA,warmup/sequoia.png,trees,graduated_college,NA,english,female,NA,trees,NA,1,1574449231343,2,This is a,1.25,These are both,bonsai,NA,warmup2,NA
849,NA,dandilion,NA,Fri Nov 22 2019 14:00:31 GMT-0500 (Eastern Standard Time),NA,23,warmup/sunflower_warmup.png,dandelion,This is a,none,2,flowers,linda,sunflower,NA,yes,Please label the pictures below.,NA,NA,52,NA,none,NA,warmup/dandelion.jpg,flowers,graduated_college,NA,english,female,NA,flowers,NA,2,1574449231343,1,This is a,1.25,These are both,sunflower,NA,warmup2,NA
849,NA,dandelion,NA,Fri Nov 22 2019 14:00:31 GMT-0500 (Eastern Standard Time),NA,23,warmup/sunflower_warmup.png,dandelion,This is a,none,2,flowers,linda,sunflower,NA,yes,Please label the pictures below.,NA,NA,52,NA,none,NA,warmup/dandelion.jpg,flowers,graduated_college,NA,english,female,NA,flowers,NA,2,1574449231343,2,This is a,1.25,These are both,sunflower,NA,warmup2,NA
849,NA,swordfish,NA,Fri Nov 22 2019 14:00:31 GMT-0500 (Eastern Standard Time),NA,23,warmup/goldfish_warmup.png,swordfish,This is a,none,2,fish,linda,goldfish,NA,yes,Please label the pictures below.,NA,NA,52,NA,none,NA,warmup/swordfish.jpg,fish,graduated_college,NA,english,female,NA,fish,NA,3,1574449231343,1,This is a,1.25,These are both,goldfish,NA,warmup2,NA
849,What do you think your friend meant?,NA,It is big relative to other,Fri Nov 22 2019 14:00:31 GMT-0500 (Eastern Standard Time),ref-utility/sunflowers-5-6.png,23,NA,NA,NA,none,2,flowers,linda,NA,1,yes,"Your friend runs far ahead of you, and you see him in the distance:",predicative,warmup/sunflower.png,52,flowers,none,1,NA,NA,graduated_college,big,english,female,NA,NA,You and your friend see the following:,1,1574449231343,NA,NA,1.25,NA,NA,congr,custom_main_text2,Your friend says: <br/><b>That sunflower is big.</b>
849,What do you think your friend meant?,NA,It is big relative to other,Fri Nov 22 2019 14:00:31 GMT-0500 (Eastern Standard Time),ref-utility/redwoods-5-6.png,23,NA,NA,NA,none,2,trees,linda,NA,1,yes,"Your friend runs far ahead of you, and you see him in the distance:",predicative,warmup/redwood.png,52,trees,none,1,NA,NA,graduated_college,big,english,female,NA,NA,You and your friend see the following:,2,1574449231343,NA,NA,1.25,NA,NA,congr,custom_main_text2,Your friend says: <br/><b>That redwood is big.</b>
849,What do you think your friend meant?,NA,It is small relative to other,Fri Nov 22 2019 14:00:31 GMT-0500 (Eastern Standard Time),ref-utility/goldfish-5-6.png,23,NA,NA,NA,none,2,fish,linda,NA,1,yes,"Your friend runs far ahead of you, and you see him in the distance:",predicative,warmup/goldfish.png,52,fish,none,1,NA,NA,graduated_college,small,english,female,NA,NA,You and your friend see the following:,3,1574449231343,NA,NA,1.25,NA,NA,congr,custom_main_text2,Your friend says: <br/><b>That goldfish is small.</b>
840,NA,dog,NA,Fri Nov 22 2019 13:46:51 GMT-0500 (Eastern Standard Time),NA,23,warmup/great-dane.jpg,pug,This is a,NA,1,dogs,Patricia,great dane,NA,yes,Please label the pictures below.,NA,NA,26,NA,NA,NA,warmup/pug.jpg,dogs,some_college,NA,English,male,NA,dogs,NA,1,1574448411998,1,This is a,1,These are both,dog,NA,warmup1,NA
840,NA,pug,NA,Fri Nov 22 2019 13:46:51 GMT-0500 (Eastern Standard Time),NA,23,warmup/great-dane.jpg,pug,This is a,NA,1,dogs,Patricia,great dane,NA,yes,Please label the pictures below.,NA,NA,26,NA,NA,NA,warmup/pug.jpg,dogs,some_college,NA,English,male,NA,dogs,NA,1,1574448411998,2,This is a,1,These are both,dog,NA,warmup1,NA
